time,timestamp,recordtime,lat,long,alt,speed,course,verticalAccuracy,horizontalAccuracy,locTimeStamp,accelerationX,accelerationY,accelerationZ,HeadingX,HeadingY,HeadingZ,TrueHeading,MagneticHeading,HeadingAccuracy,RotationX,RotationY,RotationZ,motionYaw,motionRoll,motionPitch,motionRotationRateX,motionRotationRateY,motionRotationRateZ,motionUserAccelerationX,motionUserAccelerationY,motionUserAccelerationZ,en0,pdp_ip0,DeviceOrientation,Activity,Activity Confidence,Activity Start,Steps,Last Step Date,State
2014-11-15 18:16:45.570,44899,1496.633,40.10472,-88.2219,239.4287,0,41.13281,12,10,1416097005,-0.4033813,0.587265,-0.7062683,-30.10362,3.336151,3.0271,86.88263,89.96494,15,0.01169554,-0.08828965,-0.01218503,2.202986,-0.5242165,-0.632006,0.08231687,-0.005806637,0.00293864,-0.004471605,-0.005193228,0.004803008,172.17.160.76,10.64.29.0,5,unknown,2,2014-11-15 18:16:42.238,134,2014-11-15 18:16:20.024,3
2014-11-15 18:16:45.603,44900,1496.667,40.10472,-88.2219,239.4287,0,41.13281,12,10,1416097005,-0.3947601,0.579422,-0.6962433,-30.13801,3.714951,3.194397,86.87217,89.95448,15,-0.02128771,-0.07033674,-0.02895069,2.20506,-0.5237196,-0.6293612,0.06418789,-0.0185567,0.001877757,0.0009050962,-0.00136341,-0.006218992,172.17.160.76,10.64.29.0,5,unknown,2,2014-11-15 18:16:42.238,134,2014-11-15 18:16:20.024,3
2014-11-15 18:16:45.636,44901,1496.7,40.10472,-88.2219,239.4287,0,41.13281,12,10,1416097005,-0.4013519,0.5856171,-0.6856995,-29.86293,3.577209,3.261261,86.85295,89.93526,15,-0.05649577,-0.07770146,-0.02142726,2.205814,-0.5231975,-0.6278776,0.02800954,0.002586314,-0.01485891,0.01081737,-0.008357406,0.008831524,172.17.160.76,10.64.29.0,5,unknown,2,2014-11-15 18:16:42.238,134,2014-11-15 18:16:20.024,3
2014-11-15 18:16:45.670,44902,1496.733,40.10472,-88.2219,239.4287,0,41.13281,12,10,1416097005,-0.3946838,0.5769501,-0.7031097,-29.82854,3.54277,3.093964,86.84606,89.92838,15,-0.07254025,-0.1105622,-0.01198689,2.205682,-0.5236834,-0.6277374,0.0002200477,-0.031292,-7.233168e-05,0.008238908,-0.008716969,0.01024742,172.17.160.76,10.64.29.0,5,stationary,1,2014-11-15 18:16:45.639,134,2014-11-15 18:16:20.024,3
2014-11-15 18:16:45.703,44903,1496.767,40.10472,-88.2219,239.4287,0,41.13281,12,10,1416097005,-0.4069214,0.5815887,-0.6950226,-29.96609,3.267288,2.759277,86.84763,89.92995,15,-0.107662,-0.09259225,-0.02662149,2.205057,-0.5261945,-0.6281022,-0.03812179,-0.02922818,-0.01053461,-0.007505039,-0.01026341,0.0005444157,172.17.160.76,10.64.29.0,5,stationary,1,2014-11-15 18:16:45.639,134,2014-11-15 18:16:20.024,3
2014-11-15 18:16:45.736,44904,1496.8,40.10472,-88.2219,239.4287,0,41.13281,12,10,1416097005,-0.401123,0.5885773,-0.6988678,-30.17239,3.749374,2.759308,86.84166,89.92397,15,-0.1098541,-0.1254439,-0.01510998,2.204353,-0.5271833,-0.6287006,-0.04454038,-0.03768595,-0.00524786,0.006696775,-0.00571209,0.001455661,172.17.160.76,10.64.29.0,5,stationary,1,2014-11-15 18:16:45.639,134,2014-11-15 18:16:20.024,3
2014-11-15 18:16:45.770,44905,1496.833,40.10472,-88.2219,239.4287,0,41.13281,12,10,1416097005,-0.4140015,0.5820923,-0.7100525,-30.41309,3.921562,2.658905,86.83648,89.91879,15,-0.1077499,-0.1285689,-0.006642456,2.203939,-0.5297794,-0.630326,-0.04331548,-0.07477256,0.01158867,0.002395966,-0.005072814,-0.008836454,172.17.160.76,10.64.29.0,5,stationary,1,2014-11-15 18:16:45.639,134,2014-11-15 18:16:20.024,3
2014-11-15 18:16:45.803,44906,1496.867,40.10472,-88.2219,239.4287,0,41.13281,12,10,1416097005,-0.412262,0.5809174,-0.708252,-30.27555,4.059303,3.261261,86.80585,89.88816,15,-0.09810819,-0.1169809,-0.01935532,2.203458,-0.5315936,-0.6308528,-0.03792164,-0.04511794,-0.001014294,-0.002478998,-0.009465612,-0.01160071,172.17.160.76,10.64.29.0,5,stationary,1,2014-11-15 18:16:45.639,134,2014-11-15 18:16:20.024,3
2014-11-15 18:16:45.836,44907,1496.9,40.10472,-88.2219,239.4287,0,41.13281,12,10,1416097005,-0.4175873,0.5882874,-0.7012482,-30.27554,3.783821,3.595886,86.77992,89.86224,15,-0.08209886,-0.1180995,-0.02579005,2.202925,-0.533305,-0.630926,-0.02511537,-0.05260203,-0.006410282,-0.001752692,-0.008975345,-0.01290403,172.17.160.76,10.64.29.0,5,stationary,1,2014-11-15 18:16:45.639,134,2014-11-15 18:16:20.024,3
2014-11-15 18:16:45.870,44908,1496.933,40.10472,-88.2219,239.4287,0,41.13281,12,10,1416097005,-0.4193573,0.5873566,-0.7045441,-30.30993,3.405029,3.696289,86.7722,89.85452,15,-0.05860233,-0.1118315,-0.03858281,2.202222,-0.5352842,-0.6305599,-0.001614073,-0.04634277,-0.02026592,-0.005592489,-0.001309673,-0.006528342,172.17.160.76,10.64.29.0,5,stationary,1,2014-11-15 18:16:45.639,134,2014-11-15 18:16:20.024,3
2014-11-15 18:16:45.903,44909,1496.967,40.10472,-88.2219,239.4287,0,41.13281,12,10,1416097005,-0.4220581,0.5851135,-0.6968079,-30.34432,3.232849,3.12735,86.77238,89.8547,15,-0.03618384,-0.1044684,-0.04711984,2.201253,-0.5377623,-0.6291964,0.01459264,-0.03472649,-0.02661214,-0.009091247,-0.003076545,-0.003962532,172.17.160.76,10.64.29.0,5,stationary,1,2014-11-15 18:16:45.639,134,2014-11-15 18:16:20.024,3
2014-11-15 18:16:45.936,44910,1497,40.10472,-88.2219,239.4287,0,41.13281,12,10,1416097005,-0.4172211,0.5891266,-0.6947174,-30.06925,2.957367,3.060425,86.78516,89.86748,15,-0.02445794,-0.09276163,-0.04391766,2.200573,-0.5394592,-0.6277645,0.03060087,-0.03371347,-0.03197561,-1.960355e-05,-0.005214158,0.0006947105,172.17.160.76,10.64.29.0,5,stationary,1,2014-11-15 18:16:45.639,134,2014-11-15 18:16:20.024,3
2014-11-15 18:16:45.970,44911,1497.033,40.10472,-88.2219,239.4287,0,41.13281,12,10,1416097005,-0.4108124,0.5903168,-0.6920929,-30.17241,3.267288,3.093872,86.78803,89.87035,15,-0.03087589,-0.09163991,-0.03645734,2.200351,-0.5404403,-0.6264879,0.03698193,-0.02303541,-0.02451292,-0.006078934,0.01001024,-0.002489071,172.17.160.76,10.64.29.0,5,stationary,1,2014-11-15 18:16:45.639,134,2014-11-15 18:16:20.024,3
2014-11-15 18:16:46.003,44912,1497.067,40.10472,-88.2219,239.4287,0,41.13281,12,10,1416097005,-0.4237823,0.5923309,-0.7017822,-30.13802,3.026237,3.261169,86.79863,89.88094,15,-0.04479064,-0.08936397,-0.01728658,2.200711,-0.541598,-0.6252446,0.02410761,-0.03454185,-0.001171372,0.003736871,0.00254922,-0.005338711,172.17.160.76,10.64.29.0,5,stationary,1,2014-11-15 18:16:45.639,134,2014-11-15 18:16:20.024,3
2014-11-15 18:16:46.036,44913,1497.1,40.10472,-88.2219,239.4287,0,41.13281,12,10,1416097005,-0.4245148,0.5875244,-0.6941376,-30.34434,3.026237,3.261169,86.80851,89.89082,15,-0.04475549,-0.08093506,-0.02679566,2.200867,-0.5420372,-0.624815,0.01986881,-0.02182898,-0.006396311,-0.008615174,0.00448455,-0.009289556,172.17.160.76,10.64.29.0,5,stationary,1,2014-11-15 18:16:45.639,134,2014-11-15 18:16:20.024,3
2014-11-15 18:16:46.070,44914,1497.133,40.10472,-88.2219,239.4287,0,41.13281,12,10,1416097005,-0.4282684,0.5920715,-0.6990662,-30.03487,2.785194,3.495422,86.81418,89.89649,15,-0.05106239,-0.07689718,-0.05541079,2.199994,-0.5431976,-0.6237935,0.01166305,-0.008254771,-0.03705605,-0.006798652,0.005755839,-7.864429e-05,172.17.160.76,10.64.29.0,5,stationary,1,2014-11-15 18:16:45.639,134,2014-11-15 18:16:20.024,3
2014-11-15 18:16:46.103,44915,1497.167,40.10472,-88.2219,240.5405,0.44,67.5,12,10,1416097006,-0.4178925,0.5861206,-0.6981964,-30.06926,2.681892,3.662811,86.82517,89.90749,15,-0.0552827,-0.05677753,-0.06484238,2.198684,-0.5443218,-0.6224254,0.0148817,-0.006179362,-0.04342612,0.005336193,0.001373672,-0.01204424,172.17.160.76,10.64.29.0,5,stationary,1,2014-11-15 18:16:45.639,134,2014-11-15 18:16:20.024,3
2014-11-15 18:16:46.136,44916,1497.2,40.10472,-88.2219,240.5405,0.44,67.5,12,10,1416097006,-0.4117584,0.5928192,-0.6842194,-29.89734,2.785194,3.562408,86.83499,89.9173,15,-0.06383038,-0.05246694,-0.0573573,2.197488,-0.5444126,-0.6214801,0.01172049,0.03098948,-0.04640256,-0.000983578,0.008337032,0.002808274,172.17.160.76,10.64.29.0,5,stationary,1,2014-11-15 18:16:45.639,134,2014-11-15 18:16:20.024,3
2014-11-15 18:16:46.170,44917,1497.233,40.10472,-88.2219,240.5405,0.44,67.5,12,10,1416097006,-0.4156342,0.5932312,-0.6938171,-30.10364,2.578568,3.227783,86.84807,89.93038,15,-0.0851876,-0.06620619,-0.04885782,2.196224,-0.5446527,-0.6216003,-0.006459286,0.003450437,-0.03586276,0.009446837,0.01048235,0.01110064,172.17.160.76,10.64.29.0,5,stationary,1,2014-11-15 18:16:45.639,134,2014-11-15 18:16:20.024,3
2014-11-15 18:16:46.202,44918,1497.267,40.10472,-88.2219,240.5405,0.44,67.5,12,10,1416097006,-0.4207458,0.5969696,-0.6859283,-30.13802,2.888496,3.2612,86.86483,89.94714,15,-0.09582826,-0.04815261,-0.05084587,2.195385,-0.5451936,-0.6220093,-0.02033332,-0.0007692857,-0.0326474,0.006540786,0.008425685,0.007235781,172.17.160.76,10.64.29.0,5,stationary,1,2014-11-15 18:16:45.639,134,2014-11-15 18:16:20.024,3
2014-11-15 18:16:46.236,44919,1497.3,40.10472,-88.2219,240.5405,0.44,67.5,12,10,1416097006,-0.4197845,0.5917664,-0.6759338,-30.24117,2.991806,3.361603,86.87911,89.96143,15,-0.1001149,-0.06938653,-0.04881867,2.193117,-0.5461152,-0.6233392,-0.0318658,0.007743197,-0.03148025,0.001010355,0.01044284,0.005970594,172.17.160.76,10.64.29.0,5,stationary,1,2014-11-15 18:16:45.639,134,2014-11-15 18:16:20.024,3
2014-11-15 18:16:46.270,44920,1497.333,40.10472,-88.2219,240.5405,0.44,67.5,12,10,1416097006,-0.4046021,0.5874329,-0.6755829,-30.4131,3.095108,3.595856,86.87952,89.96183,15,-0.124588,-0.08439451,-0.06791274,2.189835,-0.5489357,-0.6251849,-0.04252357,-0.02208619,-0.04221009,0.009787994,0.005496807,0.01324233,172.17.160.76,10.64.29.0,5,stationary,1,2014-11-15 18:16:45.639,134,2014-11-15 18:16:20.024,3
2014-11-15 18:16:46.304,44921,1497.367,40.10472,-88.2219,240.5405,0.44,67.5,12,10,1416097006,-0.4002991,0.6077881,-0.6244049,-30.68819,3.026237,3.997406,86.87908,89.9614,15,-0.159697,-0.0834901,-0.09112911,2.187963,-0.5502418,-0.626205,-0.07976764,-0.01372612,-0.06325462,0.02003748,-0.008162677,0.02835424,172.17.160.76,10.64.29.0,5,unknown,1,2014-11-15 18:16:46.257,134,2014-11-15 18:16:20.024,3
2014-11-15 18:16:46.336,44922,1497.4,40.10472,-88.2219,240.5405,0.44,67.5,12,10,1416097006,-0.4531403,0.5830383,-0.73526,-30.79134,2.922935,3.897064,86.8795,89.96181,15,-0.006079198,-0.1572858,-0.1451671,2.181948,-0.5567345,-0.6297427,0.0002143212,-0.1160742,-0.1033621,-0.007713407,0.05280202,-0.005823541,172.17.160.76,10.64.29.0,5,unknown,1,2014-11-15 18:16:46.257,134,2014-11-15 18:16:20.024,3
2014-11-15 18:16:46.370,44923,1497.433,40.10472,-88.2219,240.5405,0.44,67.5,12,10,1416097006,-0.4107971,0.5169983,-0.6407471,-30.79134,3.060684,3.963959,86.85359,89.93591,15,0.06360082,0.002469283,-0.2326897,2.17984,-0.5593245,-0.6271291,0.09538698,-0.01145961,-0.174287,-0.02349404,-0.003784235,-0.04893399,172.17.160.76,10.64.29.0,5,unknown,1,2014-11-15 18:16:46.257,134,2014-11-15 18:16:20.024,3
2014-11-15 18:16:46.403,44924,1497.467,40.10472,-88.2219,240.5405,0.44,67.5,12,10,1416097006,-0.3456879,0.5392761,-0.6028748,-30.58504,2.578583,3.294739,88.1849,91.26721,15,0.1391867,-0.01327586,-0.2022727,2.175404,-0.5590239,-0.6160991,0.210863,0.05415159,-0.2040871,0.05099534,-0.06355843,0.08449397,172.17.160.76,10.64.29.0,5,unknown,1,2014-11-15 18:16:46.257,134,2014-11-15 18:16:20.024,3
2014-11-15 18:16:46.436,44925,1497.5,40.10472,-88.2219,240.5405,0.44,67.5,12,10,1416097006,-0.3232574,0.5363617,-0.5894012,-30.79134,1.889862,3.160919,89.35639,92.43871,15,0.1464134,0.04799176,-0.1085667,2.17422,-0.5577534,-0.608264,0.2042744,0.08870091,-0.1316998,0.08866231,-0.03216753,0.09339536,172.17.160.76,10.64.29.0,5,unknown,1,2014-11-15 18:16:46.257,134,2014-11-15 18:16:20.024,3
2014-11-15 18:16:46.470,44926,1497.533,40.10472,-88.2219,240.5405,0.44,67.5,12,10,1416097006,-0.3577728,0.4480133,-0.5823975,-30.55064,1.648819,2.926666,89.91132,92.99364,15,0.137483,0.02877332,0.01980486,2.177912,-0.5514503,-0.5996726,0.2272967,0.09508825,0.01260902,0.0978687,-0.04384913,0.1027929,172.17.160.76,10.64.29.0,5,unknown,1,2014-11-15 18:16:46.257,134,2014-11-15 18:16:20.024,3
2014-11-15 18:16:46.502,44927,1497.567,40.10472,-88.2219,240.5405,0.44,67.5,12,10,1416097006,-0.3628998,0.4147339,-0.5779724,-30.82572,1.924294,3.060516,89.35096,92.43327,15,0.08733171,0.01826822,0.03267512,2.182758,-0.5458946,-0.5949065,0.176074,0.09524119,0.02978523,0.0709179,-0.1331089,0.1292806,172.17.160.76,10.64.29.0,5,unknown,1,2014-11-15 18:16:46.257,134,2014-11-15 18:16:20.024,3
2014-11-15 18:16:46.536,44928,1497.6,40.10472,-88.2219,240.5405,0.44,67.5,12,10,1416097006,-0.3551636,0.3850098,-0.5836792,-30.68819,2.062042,2.99353,89.45538,92.5377,15,0.1002108,0.02230451,0.00504962,2.186999,-0.5409078,-0.5915956,0.1493558,0.07945091,0.04784722,0.0754922,-0.1509021,0.1330333,172.17.160.76,10.64.29.0,5,unknown,1,2014-11-15 18:16:46.257,134,2014-11-15 18:16:20.024,3
2014-11-15 18:16:46.570,44929,1497.633,40.10472,-88.2219,240.5405,0.44,67.5,12,10,1416097006,-0.3671417,0.3566437,-0.5575409,-30.99765,1.95874,2.893127,89.31789,92.4002,15,0.121858,0.09813003,-0.08379663,2.191586,-0.5344093,-0.5860178,0.1817516,0.1362206,-0.03688469,0.06879012,-0.1776357,0.1405368,172.17.160.76,10.64.29.0,5,unknown,1,2014-11-15 18:16:46.257,134,2014-11-15 18:16:20.024,3
2014-11-15 18:16:46.604,44930,1497.667,40.10472,-88.2219,240.5405,0.44,67.5,12,10,1416097006,-0.327774,0.4031525,-0.5686646,-30.96326,1.097847,2.391113,90.77523,93.85754,15,0.0983287,0.03552018,-0.07448488,2.192731,-0.5276146,-0.5782235,0.1712087,0.127413,-0.07828952,0.0671038,-0.1825082,0.16798,172.17.160.76,10.64.29.0,5,unknown,1,2014-11-15 18:16:46.257,134,2014-11-15 18:16:20.024,3
2014-11-15 18:16:46.637,44931,1497.7,40.10472,-88.2219,240.5405,0.44,67.5,12,10,1416097006,-0.3463135,0.4594116,-0.589325,-30.92887,0.7879257,2.223785,90.78583,93.86814,15,0.03620381,-0.01375203,0.01040684,2.19437,-0.5242398,-0.573778,0.1272001,0.0568554,0.003237734,0.08587585,-0.1247181,0.1473403,172.17.160.76,10.64.29.0,5,unknown,1,2014-11-15 18:16:46.257,134,2014-11-15 18:16:20.024,3
2014-11-15 18:16:46.670,44932,1497.733,40.10472,-88.2219,240.5405,0.44,67.5,12,10,1416097006,-0.3602448,0.4574738,-0.5881653,-30.86011,0.5813141,1.688385,90.81853,93.90085,15,-0.04383883,-0.007104781,0.04152454,2.196086,-0.5222582,-0.5724747,0.06738295,0.05398485,0.04165991,0.07299178,-0.08230225,0.1391867,172.17.160.76,10.64.29.0,5,unknown,1,2014-11-15 18:16:46.257,134,2014-11-15 18:16:20.024,3
2014-11-15 18:16:46.703,44933,1497.767,40.10472,-88.2219,240.5405,0.44,67.5,12,10,1416097006,-0.3379669,0.4891968,-0.6122131,-30.48187,-0.004104614,1.253296,92.70708,95.78939,15,-0.2637571,-0.09458376,0.12256,2.198043,-0.5194194,-0.5755311,-0.1311211,0.01842633,0.1048433,0.05276421,-0.07635434,0.1472494,172.17.160.76,10.64.29.0,5,unknown,1,2014-11-15 18:16:46.257,134,2014-11-15 18:16:20.024,3
2014-11-15 18:16:46.736,44934,1497.8,40.10472,-88.2219,240.5405,0.44,67.5,12,10,1416097006,-0.4055328,0.4825134,-0.650528,-30.55064,-0.4861984,0.9186707,94.33298,97.41529,15,-0.2650093,-0.1462832,0.1711206,2.199044,-0.5195591,-0.5823692,-0.2038535,-0.05333133,0.1663036,0.07668889,-0.06080736,0.1127393,172.17.160.76,10.64.29.0,5,unknown,1,2014-11-15 18:16:46.257,134,2014-11-15 18:16:20.024,3
2014-11-15 18:16:46.770,44935,1497.833,40.10472,-88.2219,240.5405,0.44,67.5,12,10,1416097006,-0.4491119,0.515625,-0.6694946,-30.44748,-0.4517517,1.353729,93.94668,97.02899,15,-0.1450389,-0.09347642,-0.005256547,2.201184,-0.5214036,-0.5918851,-0.1503575,-0.05597106,0.1013389,-0.01406271,-0.07332257,0.06873642,172.17.160.76,10.64.29.0,5,unknown,1,2014-11-15 18:16:46.257,134,2014-11-15 18:16:20.024,3
2014-11-15 18:16:46.802,44936,1497.867,40.10472,-88.2219,240.5405,0.44,67.5,12,10,1416097006,-0.4090271,0.5480347,-0.7174225,-31.41025,-0.4517441,1.755341,93.52252,96.60484,15,-0.01815743,-0.1095587,-0.01643117,2.200555,-0.5228304,-0.5946345,-0.03275141,-0.02600562,-0.004030554,-0.02743001,-0.03046668,0.02567643,172.17.160.76,10.64.29.0,5,unknown,1,2014-11-15 18:16:46.257,134,2014-11-15 18:16:20.024,3
2014-11-15 18:16:46.836,44937,1497.9,40.10472,-88.2219,240.5405,0.44,67.5,12,10,1416097006,-0.4270172,0.560318,-0.6934357,-31.68533,-1.071579,1.889221,94.22117,97.30348,15,0.06071688,-0.08614101,-0.005988384,2.201218,-0.5236642,-0.5936747,0.07593873,-0.03871569,0.008233206,0.002596537,0.001777015,-0.002691569,172.17.160.76,10.64.29.0,5,unknown,1,2014-11-15 18:16:46.257,134,2014-11-15 18:16:20.024,3
2014-11-15 18:16:46.870,44938,1497.933,40.10472,-88.2219,240.5405,0.44,67.5,12,10,1416097006,-0.4112091,0.5563965,-0.667038,-31.9948,-1.58812,1.855774,94.96184,98.04415,15,0.1063874,-0.2017797,0.02083018,2.20479,-0.5228015,-0.5894599,0.163325,-0.04507158,0.01636424,-0.01424437,0.006709905,0.0440443,172.17.160.76,10.64.29.0,5,unknown,1,2014-11-15 18:16:46.257,134,2014-11-15 18:16:20.024,3
2014-11-15 18:16:46.904,44939,1497.967,40.10472,-88.2219,240.5405,0.44,67.5,12,10,1416097006,-0.4344635,0.5773468,-0.7252197,-31.61656,-1.966919,1.889252,95.488,98.57031,15,0.06889705,-0.2130263,0.07716989,2.210732,-0.5250237,-0.5847575,0.1459503,-0.1816038,0.08682949,0.007993652,-0.002406108,0.02927625,172.17.160.76,10.64.29.0,5,unknown,1,2014-11-15 18:16:46.257,134,2014-11-15 18:16:20.024,3
2014-11-15 18:16:46.937,44940,1498,40.10472,-88.2219,240.5405,0.44,67.5,12,10,1416097006,-0.4240417,0.5449371,-0.7204742,-31.65094,-2.345718,1.989655,95.90754,98.98985,15,0.01796249,-0.03048094,0.04541595,2.215505,-0.5250735,-0.5828958,0.1024491,0.001009309,0.06460133,-0.0002908074,0.02166921,0.009147303,172.17.160.76,10.64.29.0,5,unknown,1,2014-11-15 18:16:46.257,134,2014-11-15 18:16:20.024,3
2014-11-15 18:16:46.970,44941,1498.033,40.10472,-88.2219,240.5405,0.44,67.5,12,10,1416097006,-0.4254913,0.5820923,-0.6925201,-31.7541,-2.724503,2.023071,96.30651,99.38882,15,-0.04386999,-0.06132142,0.03805471,2.218261,-0.5223123,-0.582194,0.02898703,0.04445253,0.04387545,-0.0117838,-0.000282018,0.03570488,172.17.160.76,10.64.29.0,5,unknown,1,2014-11-15 18:16:46.257,134,2014-11-15 18:16:20.024,3
2014-11-15 18:16:47.003,44942,1498.067,40.10472,-88.2219,240.5405,0.44,67.5,12,10,1416097006,-0.4040375,0.5554199,-0.7810669,-31.68533,-3.550957,2.357727,96.97138,100.0537,15,-0.05051564,-0.103279,0.1100394,2.219744,-0.5237336,-0.5858077,0.02150674,-0.04848973,0.1060647,-0.004809105,0.03533845,-0.006637297,172.17.160.76,10.64.29.0,5,unknown,1,2014-11-15 18:16:46.257,134,2014-11-15 18:16:20.024,3
2014-11-15 18:16:47.036,44943,1498.1,40.10472,-88.2219,240.5405,0.44,67.5,12,10,1416097006,-0.4699707,0.591568,-0.7640381,-31.92603,-3.929749,2.257294,98.5566,101.6389,15,-0.008710667,-0.05489947,0.04644873,2.225684,-0.5204818,-0.5877079,0.01726927,0.01106766,0.1127639,-0.01035122,0.0240362,-0.05296694,172.17.160.76,10.64.29.0,5,unknown,1,2014-11-15 18:16:46.257,134,2014-11-15 18:16:20.024,3
2014-11-15 18:16:47.069,44944,1498.133,40.10472,-88.22189,240.4047,0.26,34.80469,12,10,1416097007,-0.3807373,0.5857239,-0.7901764,-31.92603,-3.929749,2.257294,98.5566,101.6389,15,-0.02023922,0.01700375,-0.0008961537,2.227938,-0.5191744,-0.5877677,0.05686356,0.01067219,0.06272385,-0.06699131,0.04617274,-0.04703838,172.17.160.76,10.64.29.0,5,unknown,1,2014-11-15 18:16:46.257,134,2014-11-15 18:16:20.024,3
2014-11-15 18:16:47.103,44945,1498.167,40.10472,-88.22189,240.4047,0.26,34.80469,12,10,1416097007,-0.4279022,0.5900574,-0.7778625,-32.26988,-4.618477,2.190308,98.77434,101.8567,15,-0.01825171,-0.0007339672,0.04252376,2.230455,-0.5140225,-0.5868673,0.02712893,0.1168602,0.05171883,0.01636394,0.02865751,-0.07138753,172.17.160.76,10.64.29.0,5,unknown,1,2014-11-15 18:16:46.257,134,2014-11-15 18:16:20.024,3
2014-11-15 18:16:47.136,44946,1498.2,40.10472,-88.22189,240.4047,0.26,34.80469,12,10,1416097007,-0.3982697,0.5929108,-0.7798462,-32.33865,-5.30719,2.257233,98.81693,101.8992,20,-0.03639077,-0.01346015,0.04464763,2.23465,-0.5079901,-0.5862319,0.04520807,0.06054468,0.05241818,-0.004203751,0.03437469,-0.0412342,172.17.160.76,10.64.29.0,5,unknown,1,2014-11-15 18:16:46.257,134,2014-11-15 18:16:20.024,3
2014-11-15 18:16:47.170,44947,1498.233,40.10472,-88.22189,240.4047,0.26,34.80469,12,10,1416097007,-0.3688965,0.5983887,-0.7774506,-32.68249,-5.858162,1.654846,98.94924,102.0316,20,-0.1953445,0.05289997,0.09866639,2.237372,-0.5041118,-0.5872146,-0.03909646,0.07464258,0.08465464,0.008530982,0.03700479,-0.05222953,172.17.160.76,10.64.29.0,5,unknown,1,2014-11-15 18:16:46.257,134,2014-11-15 18:16:20.024,3
2014-11-15 18:16:47.204,44948,1498.267,40.10472,-88.22189,240.4047,0.26,34.80469,12,10,1416097007,-0.4245911,0.5849915,-0.7920685,-32.95757,-6.478004,1.253296,99.14147,102.2238,20,-0.2540874,0.001037568,0.1219659,2.240426,-0.4971463,-0.5946161,-0.1767772,0.07830396,0.138269,0.0004702499,0.05705778,-0.0483709,172.17.160.76,10.64.29.0,5,unknown,1,2014-11-15 18:16:46.257,134,2014-11-15 18:16:20.024,3
2014-11-15 18:16:47.236,44949,1498.3,40.10472,-88.22189,240.4047,0.26,34.80469,12,10,1416097007,-0.4558105,0.5788574,-0.8319092,-33.23265,-6.546875,0.9855652,99.24578,102.3281,20,-0.2785565,-0.04698296,0.09314459,2.241177,-0.4954706,-0.5986823,-0.1991739,0.03682606,0.1317644,-0.03183535,0.02143703,-0.06532963,172.17.160.76,10.64.29.0,5,unknown,1,2014-11-15 18:16:46.257,134,2014-11-15 18:16:20.024,3
2014-11-15 18:16:47.270,44950,1498.333,40.10472,-88.22189,240.4047,0.26,34.80469,12,10,1416097007,-0.4313507,0.618988,-0.8539429,-33.33579,-6.994537,0.9520874,102.6712,105.7535,20,-0.3157705,-0.06530817,0.05603557,2.240795,-0.4953217,-0.603547,-0.2427421,0.01520413,0.07980101,-0.05873354,-0.001923091,-0.108036,172.17.160.76,10.64.29.0,5,unknown,2,2014-11-15 18:16:47.185,134,2014-11-15 18:16:20.024,3
2014-11-15 18:16:47.303,44951,1498.367,40.10472,-88.22189,240.4047,0.26,34.80469,12,10,1416097007,-0.3952179,0.6727295,-0.8636017,-33.95472,-7.132278,0.6174011,103.1686,106.2509,20,-0.2392057,-0.07338393,0.1172723,2.239172,-0.4962824,-0.6158893,-0.1842899,-0.007795587,0.1335964,-0.03611926,0.08907864,-0.1524996,172.17.160.76,10.64.29.0,5,unknown,2,2014-11-15 18:16:47.185,134,2014-11-15 18:16:20.024,3
2014-11-15 18:16:47.336,44952,1498.4,40.10472,-88.22189,240.4047,0.26,34.80469,12,10,1416097007,-0.4785919,0.6672516,-0.8845673,-33.98911,-7.373329,0.2493286,103.693,106.7753,20,-0.1966127,-0.05837702,0.13736,2.242642,-0.4947048,-0.6243144,-0.1333255,-0.01795235,0.1991639,-0.01343826,0.08248156,-0.1599347,172.17.160.76,10.64.29.0,5,unknown,2,2014-11-15 18:16:47.185,134,2014-11-15 18:16:20.024,3
2014-11-15 18:16:47.369,44953,1498.433,40.10472,-88.22189,240.4047,0.26,34.80469,12,10,1416097007,-0.4890747,0.6632385,-0.8689117,-34.26418,-7.71769,-0.08532715,105.2266,108.3089,20,-0.1900653,-0.06620991,0.08528161,2.245028,-0.4933126,-0.6283462,-0.131037,0.00720521,0.153644,-0.06979696,0.07926086,-0.1686828,172.17.160.76,10.64.29.0,5,unknown,2,2014-11-15 18:16:47.185,134,2014-11-15 18:16:20.024,3
2014-11-15 18:16:47.403,44954,1498.467,40.10472,-88.22189,240.4047,0.26,34.80469,12,10,1416097007,-0.4489136,0.699173,-0.9133453,-34.2298,-7.889854,-0.3196411,105.5663,108.6486,20,-0.08527948,-0.2096973,-0.05492051,2.244672,-0.4954265,-0.6326409,-0.06768368,-0.1100086,-0.02766257,-0.09772404,0.07443383,-0.1730797,172.17.160.76,10.64.29.0,5,unknown,2,2014-11-15 18:16:47.185,134,2014-11-15 18:16:20.024,3
2014-11-15 18:16:47.436,44955,1498.5,40.10472,-88.22189,240.4047,0.26,34.80469,12,10,1416097007,-0.4497681,0.7234497,-0.8898621,-34.53927,-8.130898,-0.01846313,105.6019,108.6842,20,-0.05212286,-0.0992672,-0.062955,2.242929,-0.5005146,-0.6328833,-0.004762369,-0.1335215,-0.04182137,-0.07158951,0.1108289,-0.2175849,172.17.160.76,10.64.29.0,5,unknown,2,2014-11-15 18:16:47.185,134,2014-11-15 18:16:20.024,3
2014-11-15 18:16:47.469,44956,1498.533,40.10472,-88.22189,240.4047,0.26,34.80469,12,10,1416097007,-0.4433136,0.7342377,-0.8523407,-35.08943,-8.268639,0.1153564,105.5065,108.5888,20,-0.09497631,-0.1583361,-0.007908523,2.241426,-0.5036511,-0.631855,-0.001590273,-0.06106697,-0.01491478,-0.05644495,0.1146644,-0.1616901,172.17.160.76,10.64.29.0,5,unknown,2,2014-11-15 18:16:47.185,134,2014-11-15 18:16:20.024,3
2014-11-15 18:16:47.502,44957,1498.567,40.10472,-88.22189,240.4047,0.26,34.80469,12,10,1416097007,-0.5164948,0.7922821,-0.8835144,-34.64242,-8.991791,0.550415,106.037,109.1193,20,-0.1867824,-0.2218546,0.01757633,2.241279,-0.5075423,-0.633568,-0.0892859,-0.1795636,0.04741694,-0.05321364,0.164934,-0.1710389,172.17.160.76,10.64.29.0,5,unknown,2,2014-11-15 18:16:47.185,134,2014-11-15 18:16:20.024,3
2014-11-15 18:16:47.536,44958,1498.6,40.10472,-88.22189,240.4047,0.26,34.80469,12,10,1416097007,-0.5315552,0.7756195,-0.9398041,-34.60803,-8.819611,0.6507874,105.8203,108.9026,20,-0.1343655,-0.2170071,-0.04097593,2.239568,-0.5150636,-0.6379058,-0.09122194,-0.1566332,-0.01189816,-0.1356218,0.1787928,-0.227638,172.17.160.76,10.64.29.0,5,unknown,2,2014-11-15 18:16:47.185,134,2014-11-15 18:16:20.024,3
2014-11-15 18:16:47.570,44959,1498.633,40.10472,-88.22189,240.4047,0.26,34.80469,12,10,1416097007,-0.5313568,0.775116,-0.937149,-34.47049,-8.888481,0.9854126,105.6477,108.73,20,-0.08740761,-0.1703161,-0.0462133,2.238229,-0.5187893,-0.6387665,-0.0474425,-0.1344765,-0.02999068,-0.1334878,0.1794139,-0.2426088,172.17.160.76,10.64.29.0,5,unknown,2,2014-11-15 18:16:47.185,134,2014-11-15 18:16:20.024,3
2014-11-15 18:16:47.603,44960,1498.667,40.10472,-88.22189,240.4047,0.26,34.80469,12,10,1416097007,-0.5441742,0.8414612,-0.9068604,-35.50204,-8.337502,0.851593,105.1663,108.2486,20,0.08351327,-0.05736609,-0.1343615,2.236683,-0.5229247,-0.6367327,0.1009994,-0.04470934,-0.09376287,-0.1207718,0.2005029,-0.2389851,172.17.160.76,10.64.29.0,5,unknown,2,2014-11-15 18:16:47.185,134,2014-11-15 18:16:20.024,3
2014-11-15 18:16:47.636,44961,1498.7,40.10472,-88.22189,240.4047,0.26,34.80469,12,10,1416097007,-0.5481415,0.7703857,-0.893158,-35.50204,-8.75074,1.052368,105.3213,108.4036,20,0.2966269,-0.07000013,-0.1055046,2.237216,-0.5216373,-0.62679,0.3206783,0.01888056,-0.1016811,-0.1363211,0.2392119,-0.1861061,172.17.160.76,10.64.29.0,5,unknown,2,2014-11-15 18:16:47.185,134,2014-11-15 18:16:20.024,3
2014-11-15 18:16:47.669,44962,1498.733,40.10472,-88.22189,240.4047,0.26,34.80469,12,10,1416097007,-0.5114594,0.7251434,-0.8192139,-35.43327,-8.268639,1.052368,104.995,108.0773,20,0.30417,-0.03933223,-0.124478,2.239699,-0.5201752,-0.6197672,0.3621985,-0.004421894,-0.08922159,-0.1373401,0.1568862,-0.1626117,172.17.160.76,10.64.29.0,5,unknown,2,2014-11-15 18:16:47.185,134,2014-11-15 18:16:20.024,3
2014-11-15 18:16:47.703,44963,1498.767,40.10472,-88.22189,240.4047,0.26,34.80469,12,10,1416097007,-0.4249573,0.658783,-0.8607025,-35.50204,-7.924278,1.453918,104.2437,107.326,20,0.4049563,-0.1456829,0.01045424,2.245293,-0.5166215,-0.6046864,0.429185,-0.02424592,-0.03650285,-0.05589052,0.1315539,-0.09787184,172.17.160.76,10.64.29.0,5,unknown,2,2014-11-15 18:16:47.185,134,2014-11-15 18:16:20.024,3
2014-11-15 18:16:47.736,44964,1498.8,40.10472,-88.22189,240.4047,0.26,34.80469,12,10,1416097007,-0.5684204,0.586441,-0.8371429,-35.60519,-7.545486,1.353546,103.9123,106.9946,20,0.4000214,-0.01146491,-0.08647683,2.253997,-0.5136132,-0.5927792,0.4705765,-0.05254986,0.01732859,-0.03491062,0.07048216,-0.1489589,172.17.160.76,10.64.29.0,5,unknown,2,2014-11-15 18:16:47.185,134,2014-11-15 18:16:20.024,3
2014-11-15 18:16:47.770,44965,1498.833,40.10472,-88.22189,240.4047,0.26,34.80469,12,10,1416097007,-0.4467621,0.4706421,-0.771698,-34.88311,-7.442177,1.788605,103.4209,106.5032,20,0.3724612,-0.1214982,-0.1665642,2.262743,-0.5061103,-0.5699105,0.4637086,0.02368088,-0.1605734,-0.09135256,-0.04904767,-0.06052098,172.17.160.76,10.64.29.0,5,unknown,2,2014-11-15 18:16:47.185,134,2014-11-15 18:16:20.024,3
2014-11-15 18:16:47.802,44966,1498.867,40.10472,-88.22189,240.4047,0.26,34.80469,12,10,1416097007,-0.4054565,0.4579773,-0.7891998,-33.92033,-7.511047,1.520905,103.8222,106.9045,20,0.344531,-0.2423173,-0.1267595,2.26475,-0.5064667,-0.5609133,0.4208557,-0.123752,-0.1282834,0.00350286,-0.0733721,-0.02033371,172.17.160.76,10.64.29.0,5,unknown,2,2014-11-15 18:16:47.185,134,2014-11-15 18:16:20.024,3
2014-11-15 18:16:47.836,44967,1498.9,40.10472,-88.22189,240.4047,0.26,34.80469,12,10,1416097007,-0.5026703,0.5016022,-0.8265686,-33.64526,-7.097816,1.453979,103.5719,106.6542,20,0.2746918,0.041728,-0.2269045,2.268719,-0.5098354,-0.5450613,0.3453245,-0.01765424,-0.153979,-0.08126564,-0.05121584,-0.1090896,172.17.160.76,10.64.29.0,5,unknown,2,2014-11-15 18:16:47.185,134,2014-11-15 18:16:20.024,3
2014-11-15 18:16:47.870,44968,1498.933,40.10472,-88.22189,240.4047,0.26,34.80469,12,10,1416097007,-0.3250122,0.4882965,-0.8445435,-33.88596,-6.925636,1.085846,103.6908,106.7731,20,0.2948982,0.1600102,-0.1807136,2.268358,-0.5076144,-0.5370283,0.3477976,0.1763131,-0.2177173,-0.08500254,-0.009982704,-0.07567942,172.17.160.76,10.64.29.0,5,unknown,2,2014-11-15 18:16:47.185,134,2014-11-15 18:16:20.024,3
2014-11-15 18:16:47.902,44969,1498.967,40.10472,-88.22189,240.4047,0.26,34.80469,12,10,1416097007,-0.4367828,0.5496368,-0.7808075,-33.54211,-6.374657,0.6842346,103.6893,106.7716,20,0.2816189,0.134618,-0.02582121,2.272512,-0.4972748,-0.5219609,0.3675114,0.1638149,-0.04165111,0.1420278,-0.01754753,-0.1240386,172.17.160.76,10.64.29.0,5,unknown,2,2014-11-15 18:16:47.185,134,2014-11-15 18:16:20.024,3
2014-11-15 18:16:47.936,44970,1499,40.10472,-88.22189,240.4047,0.26,34.80469,12,10,1416097007,-0.3965759,0.6294098,-0.7164307,-33.43894,-6.133606,0.3161316,103.4371,106.5194,20,0.2580489,0.1285337,0.01138688,2.277763,-0.4890357,-0.5125399,0.3429236,0.2140327,-0.006265784,-0.02737324,0.05924447,-0.0114577,172.17.160.76,10.64.29.0,5,unknown,2,2014-11-15 18:16:47.185,134,2014-11-15 18:16:20.024,3
2014-11-15 18:16:47.970,44971,1499.033,40.10472,-88.22189,240.4047,0.26,34.80469,12,10,1416097007,-0.3499298,0.4731293,-0.8144989,-33.67964,-5.548203,0.2826233,102.4155,105.4978,20,0.038798,-0.2294217,0.1557459,2.28626,-0.481363,-0.5041854,0.1824335,-0.07613796,0.1127545,0.1491823,0.1011799,-0.007603341,172.17.160.76,10.64.29.0,5,unknown,2,2014-11-15 18:16:47.185,134,2014-11-15 18:16:20.024,3
2014-11-15 18:16:48.002,44972,1499.067,40.10472,-88.22189,240.4047,0.26,34.80469,12,10,1416097007,-0.4727936,0.3898468,-0.7617188,-33.74841,-5.134964,0.8180237,101.3153,104.3976,20,-0.04719681,-0.1940731,0.04692144,2.292714,-0.4826564,-0.5033598,0.06201755,-0.1426189,0.1542697,-0.02817238,-0.01693247,-0.01157471,172.17.160.76,10.64.29.0,5,unknown,2,2014-11-15 18:16:47.185,134,2014-11-15 18:16:20.024,3
2014-11-15 18:16:48.037,44973,1499.1,40.10472,-88.22189,240.4047,0.26,34.80469,12,10,1416097007,-0.4170532,0.4353485,-0.7844696,-33.5421,-4.997231,1.085754,100.9451,104.0274,20,-0.05440359,-0.3182019,-0.06940677,2.295345,-0.4878223,-0.5035843,0.01343031,-0.2437977,-0.0212258,0.009104817,-0.09751239,0.01289139,172.17.160.76,10.64.29.0,5,unknown,2,2014-11-15 18:16:47.185,134,2014-11-15 18:16:20.024,3
2014-11-15 18:16:48.070,44974,1499.133,40.10473,-88.22189,241.0115,0.25,47.10938,12,10,1416097008,-0.3719635,0.5468445,-0.7823029,-32.75126,-3.791977,1.320068,99.28093,102.3632,20,-0.1021639,-0.1675363,-0.1013405,2.291856,-0.4971594,-0.5022263,-0.02140197,-0.1083829,-0.1021165,0.03395705,0.026175,0.001009218,172.17.160.76,10.64.29.0,5,unknown,2,2014-11-15 18:16:47.185,134,2014-11-15 18:16:20.024,3
2014-11-15 18:16:48.103,44975,1499.167,40.10473,-88.22189,241.0115,0.25,47.10938,12,10,1416097008,-0.4466248,0.5147095,-0.8054047,-32.68248,-3.240997,1.186188,98.88932,101.9716,20,-0.08638149,-0.2447386,-0.05191646,2.289828,-0.5003474,-0.5020752,-0.03750337,-0.1272622,-0.07031123,0.03990956,0.1048597,0.00214731,172.17.160.76,10.64.29.0,5,unknown,2,2014-11-15 18:16:47.185,134,2014-11-15 18:16:20.024,3
2014-11-15 18:16:48.136,44976,1499.2,40.10473,-88.22189,241.0115,0.25,47.10938,12,10,1416097008,-0.4524078,0.4702301,-0.7976532,-32.75126,-2.965515,1.186188,98.50893,101.5912,20,-0.1727454,-0.2020796,-0.03650768,2.288729,-0.5089299,-0.5028494,-0.06972628,-0.1873277,-0.005756601,-0.02082524,0.02445402,-0.04620353,172.17.160.76,10.64.29.0,5,unknown,2,2014-11-15 18:16:47.185,134,2014-11-15 18:16:20.024,3
2014-11-15 18:16:48.170,44977,1499.233,40.10473,-88.22189,241.0115,0.25,47.10938,12,10,1416097008,-0.4720306,0.4506226,-0.7519379,-32.57934,-3.137695,1.621185,98.43157,101.5139,20,-0.1685227,-0.1934611,-0.02055587,2.286352,-0.51392,-0.5056482,-0.1187113,-0.1193051,-0.006276548,-0.03446176,-0.02761802,-0.02252822,172.17.160.76,10.64.29.0,5,unknown,2,2014-11-15 18:16:47.185,134,2014-11-15 18:16:20.024,3
2014-11-15 18:16:48.202,44978,1499.267,40.10473,-88.22189,241.0115,0.25,47.10938,12,10,1416097008,-0.4436951,0.4692383,-0.786087,-32.51057,-2.380119,1.821991,98.28563,101.3679,20,-0.03318379,-0.2402432,-0.0160016,2.284902,-0.5186495,-0.507553,-0.02598651,-0.153363,-0.007864689,-0.02453136,-0.04110912,0.009325015,172.17.160.76,10.64.29.0,5,unknown,2,2014-11-15 18:16:47.185,134,2014-11-15 18:16:20.024,3
2014-11-15 18:16:48.236,44979,1499.3,40.10473,-88.22189,241.0115,0.25,47.10938,12,10,1416097008,-0.4343414,0.4397278,-0.7680817,-32.54495,-2.139069,2.123169,98.15517,101.2375,20,0.09804028,-0.1053504,-0.01472116,2.286078,-0.522498,-0.5058781,0.1232819,-0.0928058,0.0003870185,-0.007154614,-0.01533745,-0.02805089,172.17.160.76,10.64.29.0,5,unknown,2,2014-11-15 18:16:47.185,134,2014-11-15 18:16:20.024,3
2014-11-15 18:16:48.270,44980,1499.333,40.10473,-88.22189,241.0115,0.25,47.10938,12,10,1416097008,-0.4276428,0.4319611,-0.7281494,-32.71687,-1.347046,1.821991,97.85549,100.9378,20,0.2239532,0.02098038,-0.02195776,2.291254,-0.5204344,-0.4986649,0.2651373,0.02937783,0.007929476,-0.004948359,-0.04537683,0.01693779,172.17.160.76,10.64.29.0,5,unknown,2,2014-11-15 18:16:47.185,134,2014-11-15 18:16:20.024,3
2014-11-15 18:16:48.303,44981,1499.367,40.10473,-88.22189,241.0115,0.25,47.10938,12,10,1416097008,-0.3672638,0.447998,-0.6857452,-32.40742,-0.6927643,1.855438,94.877,97.95931,20,0.227161,0.08057234,-0.009979663,2.295936,-0.5158868,-0.4912356,0.2950809,0.09939034,-0.005613327,0.01439524,-0.0276392,0.04018915,172.17.160.76,10.64.29.0,5,unknown,2,2014-11-15 18:16:47.185,134,2014-11-15 18:16:20.024,3
2014-11-15 18:16:48.336,44982,1499.4,40.10473,-88.22189,241.0115,0.25,47.10938,12,10,1416097008,-0.3574982,0.37323,-0.7135162,-32.20111,-0.5550308,1.654602,93.96938,97.05169,20,0.2372392,-0.1021525,0.1365664,2.301206,-0.5095359,-0.4837229,0.2981078,0.1062034,0.05279262,0.07136678,-0.02077272,0.08890051,172.17.160.76,10.64.29.0,5,unknown,2,2014-11-15 18:16:47.185,134,2014-11-15 18:16:20.024,3
