time,timestamp,recordtime,lat,long,alt,speed,course,verticalAccuracy,horizontalAccuracy,locTimeStamp,accelerationX,accelerationY,accelerationZ,HeadingX,HeadingY,HeadingZ,TrueHeading,MagneticHeading,HeadingAccuracy,RotationX,RotationY,RotationZ,motionYaw,motionRoll,motionPitch,motionRotationRateX,motionRotationRateY,motionRotationRateZ,motionUserAccelerationX,motionUserAccelerationY,motionUserAccelerationZ,en0,pdp_ip0,DeviceOrientation,Activity,Activity Confidence,Activity Start,Steps,Last Step Date,State
2014-11-15 18:16:54.637,45171,1505.7,40.10475,-88.22189,240.2188,0.39,317.8125,8,10,1416097014,-0.4347076,0.5396271,-0.7244873,-30.30998,1.683266,2.424133,89.77379,92.8561,15,-0.2718677,-0.1477895,-0.02948173,2.219706,-0.5398494,-0.5644008,-0.2131879,-0.07630632,-0.01945655,-0.0009220734,-0.002438941,-0.003474273,172.17.160.76,10.64.29.0,5,unknown,2,2014-11-15 18:16:47.185,134,2014-11-15 18:16:20.024,3
2014-11-15 18:16:54.670,45172,1505.733,40.10475,-88.22189,240.2188,0.39,317.8125,8,10,1416097014,-0.4459534,0.5439911,-0.7237549,-30.58506,1.338905,2.691803,89.75535,92.83766,15,-0.2506791,-0.1879233,0.004195011,2.214844,-0.5463007,-0.5710344,-0.1877503,-0.1195985,0.01843334,-0.0006721282,0.001306467,-0.005783561,172.17.160.76,10.64.29.0,5,unknown,2,2014-11-15 18:16:47.185,134,2014-11-15 18:16:20.024,3
2014-11-15 18:16:54.703,45173,1505.767,40.10475,-88.22189,240.2188,0.39,317.8125,8,10,1416097014,-0.4497986,0.529892,-0.7281647,-30.61945,1.097855,2.591431,89.80047,92.88278,15,-0.234677,-0.1602797,0.007465107,2.212088,-0.5513949,-0.5755956,-0.1737926,-0.1077946,0.02377031,-0.01445561,-0.009498686,-0.01201904,172.17.160.76,10.64.29.0,5,unknown,2,2014-11-15 18:16:47.185,134,2014-11-15 18:16:20.024,3
2014-11-15 18:16:54.736,45174,1505.8,40.10475,-88.22189,240.2188,0.39,317.8125,8,10,1416097014,-0.4494629,0.5399323,-0.7251587,-30.72261,1.063416,2.357178,89.82999,92.9123,15,-0.2143858,-0.1337647,0.002221343,2.209576,-0.5553505,-0.5789803,-0.1545499,-0.06747448,0.0175389,-0.01114168,-0.009954495,-0.01958977,172.17.160.76,10.64.29.0,5,unknown,2,2014-11-15 18:16:47.185,134,2014-11-15 18:16:20.024,3
2014-11-15 18:16:54.770,45175,1505.833,40.10475,-88.22189,240.2188,0.39,317.8125,8,10,1416097014,-0.4579468,0.5299072,-0.7142181,-30.61945,1.78656,2.32373,89.86163,92.94394,15,-0.1973743,-0.1432408,0.01484552,2.207616,-0.5584995,-0.5820137,-0.1343269,-0.0769764,0.02696447,-0.002995604,-0.01767896,-0.009851106,172.17.160.76,10.64.29.0,5,unknown,2,2014-11-15 18:16:47.185,134,2014-11-15 18:16:20.024,3
2014-11-15 18:16:54.803,45176,1505.867,40.10475,-88.22189,240.2188,0.39,317.8125,8,10,1416097014,-0.4584045,0.5313416,-0.7149048,-30.55068,1.855446,2.926117,89.84953,92.93185,15,-0.19617,-0.1041967,-0.02104377,2.205119,-0.5627267,-0.5854065,-0.1310565,-0.04840178,0.01223765,-0.01327055,-0.0193656,-0.01259304,172.17.160.76,10.64.29.0,5,unknown,2,2014-11-15 18:16:47.185,134,2014-11-15 18:16:20.024,3
2014-11-15 18:16:54.836,45177,1505.9,40.10475,-88.22189,240.2188,0.39,317.8125,8,10,1416097014,-0.4643097,0.5446472,-0.7110596,-30.51631,1.752144,3.428101,89.83421,92.91652,15,-0.1832103,-0.04393843,-0.06111129,2.202453,-0.5654458,-0.5873026,-0.1255616,-0.02829998,-0.01311297,-0.01239048,-0.02277609,-0.01203559,172.17.160.76,10.64.29.0,5,unknown,2,2014-11-15 18:16:47.185,134,2014-11-15 18:16:20.024,3
2014-11-15 18:16:54.870,45178,1505.933,40.10475,-88.22189,240.2188,0.39,317.8125,8,10,1416097014,-0.4713745,0.5559387,-0.687439,-30.86017,1.270042,3.16037,89.83642,92.91873,15,-0.1704048,-0.04823517,-0.06648928,2.200176,-0.5667947,-0.5879341,-0.115829,0.02245901,-0.04472941,-0.02301384,-0.01463469,-0.02196641,172.17.160.76,10.64.29.0,5,unknown,2,2014-11-15 18:16:47.185,134,2014-11-15 18:16:20.024,3
2014-11-15 18:16:54.903,45179,1505.967,40.10475,-88.22189,240.2188,0.39,317.8125,8,10,1416097014,-0.450058,0.5641327,-0.7116394,-31.06647,1.338921,3.29425,89.85517,92.93748,15,-0.1588027,-0.1288389,-0.04572754,2.194747,-0.570693,-0.5896755,-0.0892223,-0.04238668,-0.04623553,-0.02239013,-0.0001526815,0.01197177,172.17.160.76,10.64.29.0,5,unknown,2,2014-11-15 18:16:47.185,134,2014-11-15 18:16:20.024,3
2014-11-15 18:16:54.936,45180,1506,40.10475,-88.22189,240.2188,0.39,317.8125,8,10,1416097014,-0.4576569,0.5682068,-0.6941071,-30.68823,1.717705,2.926117,89.85986,92.94217,15,-0.1385818,-0.07659784,-0.02111407,2.19042,-0.5755334,-0.5929321,-0.08183471,-0.01985331,-0.01642268,0.002356115,0.01644605,-0.003024098,172.17.160.76,10.64.29.0,5,unknown,2,2014-11-15 18:16:47.185,134,2014-11-15 18:16:20.024,3
2014-11-15 18:16:54.970,45181,1506.033,40.10475,-88.22189,240.2188,0.39,317.8125,8,10,1416097014,-0.4612122,0.5557861,-0.6941833,-30.31001,1.958755,3.695801,89.83061,92.91293,15,-0.1130475,-0.08925798,-0.007477091,2.189034,-0.5768794,-0.59477,-0.04672844,-0.02182162,0.006788348,-0.003051856,0.003585596,0.0006174839,172.17.160.76,10.64.29.0,5,unknown,2,2014-11-15 18:16:47.185,134,2014-11-15 18:16:20.024,3
2014-11-15 18:16:55.002,45182,1506.067,40.10475,-88.22189,240.2188,0.39,317.8125,8,10,1416097014,-0.464035,0.5508728,-0.6949921,-30.00053,1.993187,3.662354,89.77478,92.85709,15,-0.07887112,-0.07026803,-0.02342729,2.188296,-0.5781074,-0.5954359,-0.02218527,-0.008054025,0.002521391,-0.01146743,-0.0114007,0.005685228,172.17.160.76,10.64.29.0,5,unknown,2,2014-11-15 18:16:47.185,134,2014-11-15 18:16:20.024,3
2014-11-15 18:16:55.035,45183,1506.1,40.10475,-88.22189,240.2188,0.39,317.8125,8,10,1416097014,-0.4658661,0.5610962,-0.6820526,-30.55069,1.648827,3.796173,89.76374,92.84605,15,-0.06599925,-0.08005356,-0.05218704,2.187434,-0.5792328,-0.5947123,0.004549149,-0.01040312,-0.02519226,-0.01701133,-0.009306132,-0.00168707,172.17.160.76,10.64.29.0,5,unknown,2,2014-11-15 18:16:47.185,134,2014-11-15 18:16:20.024,3
2014-11-15 18:16:55.070,45184,1506.133,40.10476,-88.22189,239.5026,0.36,3.867188,8,10,1416097015,-0.4486847,0.5749817,-0.6839294,-30.61945,1.579956,3.260742,89.97855,93.06087,15,-0.07771797,-0.09071366,-0.0575067,2.1858,-0.5811787,-0.5940529,-0.007046517,-0.02208248,-0.04320015,-0.01091345,0.001372054,0.01057065,172.17.160.76,10.64.29.0,5,unknown,2,2014-11-15 18:16:47.185,134,2014-11-15 18:16:20.024,3
2014-11-15 18:16:55.103,45185,1506.167,40.10476,-88.22189,239.5026,0.36,3.867188,8,10,1416097015,-0.4473877,0.5716705,-0.6744385,-30.86015,1.201164,3.361115,90.00445,93.08676,15,-0.1130387,-0.1073781,-0.01500292,2.184183,-0.5832635,-0.5945385,-0.01991017,-0.0346855,-0.02411055,0.007561128,0.01485516,0.007516886,172.17.160.76,10.64.29.0,5,unknown,2,2014-11-15 18:16:47.185,134,2014-11-15 18:16:20.024,3
2014-11-15 18:16:55.136,45186,1506.2,40.10476,-88.22189,239.5026,0.36,3.867188,8,10,1416097015,-0.4534149,0.571579,-0.676651,-30.61945,1.235596,3.394562,90.01553,93.09784,15,-0.1430163,-0.1240772,0.02323475,2.183167,-0.5854499,-0.5973187,-0.06697673,-0.05343711,0.02267526,0.009506604,0.00924303,0.01470803,172.17.160.76,10.64.29.0,5,unknown,2,2014-11-15 18:16:47.185,134,2014-11-15 18:16:20.024,3
2014-11-15 18:16:55.170,45187,1506.233,40.10476,-88.22189,239.5026,0.36,3.867188,8,10,1416097015,-0.4750061,0.5658264,-0.682724,-30.51631,1.132286,3.56189,90.03987,93.12218,15,-0.1387592,-0.1336427,0.02316844,2.182882,-0.5867244,-0.5993776,-0.07556164,-0.05755545,0.03967071,0.007728287,0.009098247,0.009024286,172.17.160.76,10.64.29.0,5,unknown,2,2014-11-15 18:16:47.185,134,2014-11-15 18:16:20.024,3
2014-11-15 18:16:55.203,45188,1506.267,40.10476,-88.22189,239.5026,0.36,3.867188,8,10,1416097015,-0.4630737,0.5700684,-0.6751251,-30.51631,1.407768,3.294128,90.06353,93.14584,15,-0.1162289,-0.1095257,-0.01818673,2.18201,-0.5901591,-0.6025831,-0.06483711,-0.05559798,0.01841028,-0.0165256,-0.0009460959,0.00179375,172.17.160.76,10.64.29.0,5,unknown,2,2014-11-15 18:16:47.185,134,2014-11-15 18:16:20.024,3
2014-11-15 18:16:55.236,45189,1506.3,40.10476,-88.22189,239.5026,0.36,3.867188,8,10,1416097015,-0.4512024,0.578186,-0.6773529,-30.27561,1.442207,2.926025,90.08049,93.1628,15,-0.08209646,-0.1149117,-0.02577327,2.180151,-0.5936695,-0.6039677,-0.02743131,-0.04414778,-0.01033157,-0.002418985,0.002292964,0.007448279,172.17.160.76,10.64.29.0,5,unknown,2,2014-11-15 18:16:47.185,134,2014-11-15 18:16:20.024,3
2014-11-15 18:16:55.270,45190,1506.333,40.10476,-88.22189,239.5026,0.36,3.867188,8,10,1416097015,-0.4553223,0.5772858,-0.6600037,-30.10368,1.68325,3.428009,90.08492,93.16723,15,-0.03296487,-0.05129195,-0.04048298,2.180004,-0.5948796,-0.6044632,0.02377009,-0.008060073,-0.0124535,0.01199671,0.008995813,0.006687978,172.17.160.76,10.64.29.0,5,unknown,2,2014-11-15 18:16:47.185,134,2014-11-15 18:16:20.024,3
2014-11-15 18:16:55.302,45191,1506.367,40.10476,-88.22189,239.5026,0.36,3.867188,8,10,1416097015,-0.4349213,0.5444031,-0.632431,-30.37878,1.545509,3.69574,90.07909,93.1614,15,-0.01158768,-0.05783001,-0.06076561,2.179621,-0.5949172,-0.6038762,0.04839196,0.01507943,-0.04214363,0.009203224,-0.002331392,0.03793743,172.17.160.76,10.64.29.0,5,unknown,2,2014-11-15 18:16:47.185,134,2014-11-15 18:16:20.024,3
2014-11-15 18:16:55.336,45192,1506.4,40.10476,-88.22189,239.5026,0.36,3.867188,8,10,1416097015,-0.4149628,0.5404205,-0.5976715,-30.34439,1.373337,4.130829,90.06773,93.15004,15,-0.01054958,-0.05243764,-0.05012628,2.179194,-0.5951276,-0.6022981,0.05158392,0.01508402,-0.04109348,0.03723794,-0.02765835,0.05503048,172.17.160.76,10.64.29.0,5,unknown,2,2014-11-15 18:16:47.185,134,2014-11-15 18:16:20.024,3
2014-11-15 18:16:55.370,45193,1506.433,40.10476,-88.22189,239.5026,0.36,3.867188,8,10,1416097015,-0.396347,0.5174255,-0.5890808,-30.82578,0.8912354,4.130829,90.07235,93.15466,15,0.004288222,-0.06606717,-0.02477805,2.179659,-0.5945632,-0.6003239,0.0696203,0.002515094,-0.01575174,0.04724402,-0.02448924,0.08587939,172.17.160.76,10.64.29.0,5,unknown,2,2014-11-15 18:16:47.185,134,2014-11-15 18:16:20.024,3
2014-11-15 18:16:55.403,45194,1506.467,40.10476,-88.22189,239.5026,0.36,3.867188,8,10,1416097015,-0.4049683,0.490036,-0.5717163,-31.16962,1.028992,3.930054,90.08952,93.17184,15,-0.02343981,-0.0287664,-0.01174001,2.181503,-0.5932642,-0.5980646,0.05677114,0.01756522,0.006666632,0.05832907,-0.05770348,0.09959012,172.17.160.76,10.64.29.0,5,unknown,2,2014-11-15 18:16:47.185,134,2014-11-15 18:16:20.024,3
2014-11-15 18:16:55.436,45195,1506.5,40.10476,-88.22189,239.5026,0.36,3.867188,8,10,1416097015,-0.3807678,0.4718933,-0.5423584,-31.47909,1.063423,4.164307,90.09201,93.17432,15,-0.05330557,-0.03296993,-0.007404387,2.182565,-0.5916402,-0.59702,0.03226567,0.0367039,0.00685908,0.05627692,-0.07214448,0.1147281,172.17.160.76,10.64.29.0,5,unknown,2,2014-11-15 18:16:47.185,134,2014-11-15 18:16:20.024,3
2014-11-15 18:16:55.470,45196,1506.533,40.10476,-88.22189,239.5026,0.36,3.867188,8,10,1416097015,-0.3819122,0.4572601,-0.5271759,-31.85732,1.166725,3.996979,90.0901,93.17242,15,-0.05226187,-0.04568972,-0.003229349,2.183,-0.590688,-0.5967796,0.01413353,0.03354086,0.009033219,0.07181166,-0.08145183,0.12564,172.17.160.76,10.64.29.0,5,unknown,2,2014-11-15 18:16:47.185,134,2014-11-15 18:16:20.024,3
2014-11-15 18:16:55.502,45197,1506.567,40.10476,-88.22189,239.5026,0.36,3.867188,8,10,1416097015,-0.375061,0.4354401,-0.5419922,-31.58223,1.166725,4.197784,90.08836,93.17068,15,-0.01069818,-0.05419533,-0.001306813,2.183924,-0.5892571,-0.5964447,0.0290435,0.01866444,0.0099604,0.07787549,-0.1044445,0.1606345,172.17.160.76,10.64.29.0,5,unknown,2,2014-11-15 18:16:47.185,134,2014-11-15 18:16:20.024,3
2014-11-15 18:16:55.536,45198,1506.6,40.10476,-88.22189,239.5026,0.36,3.867188,8,10,1416097015,-0.3869629,0.4608002,-0.5587463,-31.34154,0.7190704,3.628876,90.1074,93.18971,15,0.02984338,-0.01277412,-0.0012405,2.185411,-0.5879526,-0.5953346,0.0706147,0.02504278,0.01302265,0.08417463,-0.1253457,0.1469359,172.17.160.76,10.64.29.0,5,unknown,2,2014-11-15 18:16:47.185,134,2014-11-15 18:16:20.024,3
2014-11-15 18:16:55.570,45199,1506.633,40.10476,-88.22189,239.5026,0.36,3.867188,8,10,1416097015,-0.3935089,0.5081329,-0.5871277,-30.48192,0.2025223,3.327728,90.16604,93.24835,15,0.04034583,-0.04432192,0.04313628,2.189658,-0.5830333,-0.5915779,0.1153112,0.04118247,0.04266161,0.0690735,-0.07180113,0.1151738,172.17.160.76,10.64.29.0,5,unknown,2,2014-11-15 18:16:47.185,134,2014-11-15 18:16:20.024,3
2014-11-15 18:16:55.602,45200,1506.667,40.10476,-88.22189,239.5026,0.36,3.867188,8,10,1416097015,-0.4017944,0.5458527,-0.6104431,-30.82578,0.4091339,3.060028,90.19395,93.27627,15,0.00929097,-0.05460492,0.08671919,2.193838,-0.5803084,-0.5901,0.09914407,-0.0009544658,0.09026685,0.0568165,-0.02034183,0.10737,172.17.160.76,10.64.29.0,5,unknown,2,2014-11-15 18:16:47.185,134,2014-11-15 18:16:20.024,3
2014-11-15 18:16:55.636,45201,1506.7,40.10476,-88.22189,239.5026,0.36,3.867188,8,10,1416097015,-0.4042206,0.5235443,-0.6156311,-31.13524,0.5124359,3.294281,91.57213,94.65444,15,-0.03018613,-0.02150076,0.106148,2.198319,-0.5769683,-0.5903112,0.04260795,0.04706619,0.1140839,0.05801475,-0.01049225,0.09647535,172.17.160.76,10.64.29.0,5,unknown,2,2014-11-15 18:16:47.185,134,2014-11-15 18:16:20.024,3
2014-11-15 18:16:55.669,45202,1506.733,40.10476,-88.22189,239.5026,0.36,3.867188,8,10,1416097015,-0.3955383,0.5080566,-0.6338196,-31.37592,0.6157379,3.260864,91.43073,94.51305,15,-0.01743412,-0.05866624,0.1101505,2.202831,-0.5734754,-0.5914537,0.03508684,0.01634203,0.1256265,0.03863312,-0.04468994,0.07411231,172.17.160.76,10.64.29.0,5,unknown,2,2014-11-15 18:16:47.185,134,2014-11-15 18:16:20.024,3
2014-11-15 18:16:55.703,45203,1506.767,40.10476,-88.22189,239.5026,0.36,3.867188,8,10,1416097015,-0.4262695,0.4992676,-0.632019,-31.30716,0.3402634,3.126953,91.43714,94.51945,15,0.06160717,-0.04737657,0.06214726,2.207774,-0.5705745,-0.5917782,0.09055929,0.002380282,0.109423,0.05273071,-0.04978102,0.06465878,172.17.160.76,10.64.29.0,5,unknown,2,2014-11-15 18:16:47.185,134,2014-11-15 18:16:20.024,3
2014-11-15 18:16:55.737,45204,1506.8,40.10476,-88.22189,239.5026,0.36,3.867188,8,10,1416097015,-0.4172211,0.5278168,-0.6597443,-31.51347,-0.3484573,2.993073,91.47031,94.55262,15,0.1184289,-0.008815596,-0.03445731,2.213846,-0.566054,-0.5887476,0.1623134,0.06007607,0.01498606,0.02029139,-0.06478041,0.07698225,172.17.160.76,10.64.29.0,5,unknown,2,2014-11-15 18:16:47.185,134,2014-11-15 18:16:20.024,3
2014-11-15 18:16:55.770,45205,1506.833,40.10476,-88.22189,239.5026,0.36,3.867188,8,10,1416097015,-0.3987274,0.5462952,-0.6763,-31.71979,-0.8305588,2.725342,91.53662,94.61893,15,0.1045094,-0.04698242,-0.02399135,2.21693,-0.5626264,-0.5838885,0.1891251,0.06072548,-0.03818511,0.02781603,-0.02345558,0.04597577,172.17.160.76,10.64.29.0,5,unknown,2,2014-11-15 18:16:47.185,134,2014-11-15 18:16:20.024,3
2014-11-15 18:16:55.803,45206,1506.867,40.10476,-88.22189,239.5026,0.36,3.867188,8,10,1416097015,-0.3896027,0.5561371,-0.683548,-31.85733,-1.381531,2.725342,91.58487,94.66718,15,0.04560184,-0.04946183,0.06644214,2.219948,-0.5599067,-0.5798014,0.1452248,0.01757267,0.01376668,0.04558168,-0.001562668,0.03253084,172.17.160.76,10.64.29.0,5,unknown,2,2014-11-15 18:16:47.185,134,2014-11-15 18:16:20.024,3
2014-11-15 18:16:55.836,45207,1506.9,40.10476,-88.22189,239.5026,0.36,3.867188,8,10,1416097015,-0.4441376,0.5400238,-0.6914673,-31.85733,-1.794762,2.658417,91.69649,94.7788,15,0.01355043,-0.03543229,0.09317309,2.225121,-0.5554615,-0.5792637,0.09695978,0.0140621,0.1084078,0.05170646,0.008729209,0.02750117,172.17.160.76,10.64.29.0,5,unknown,2,2014-11-15 18:16:47.185,134,2014-11-15 18:16:20.024,3
2014-11-15 18:16:55.870,45208,1506.933,40.10476,-88.22189,239.5026,0.36,3.867188,8,10,1416097015,-0.3805237,0.514679,-0.7189484,-32.23557,-2.449043,2.691864,91.82823,94.91055,15,-0.09383915,0.1150874,0.0381093,2.231682,-0.5490259,-0.5797146,-0.0008576415,0.1390736,0.05317507,-0.001499994,-0.01714555,0.01168326,172.17.160.76,10.64.29.0,5,unknown,2,2014-11-15 18:16:47.185,134,2014-11-15 18:16:20.024,3
2014-11-15 18:16:55.903,45209,1506.967,40.10476,-88.22189,239.5026,0.36,3.867188,8,10,1416097015,-0.4229126,0.5811615,-0.7545776,-32.20118,-2.621216,2.658386,91.90631,94.98862,15,-0.07604603,0.07225475,0.1365349,2.233959,-0.5422398,-0.5816999,-0.03625258,0.14602,0.1265875,0.04812336,-0.007254513,-0.009267816,172.17.160.76,10.64.29.0,5,unknown,2,2014-11-15 18:16:47.185,134,2014-11-15 18:16:20.024,3
2014-11-15 18:16:55.936,45210,1507,40.10476,-88.22189,239.5026,0.36,3.867188,8,10,1416097015,-0.4094849,0.5482483,-0.8010406,-32.37309,-3.000008,2.290253,92.10812,95.19044,15,0.05947984,0.1548863,0.1120485,2.239427,-0.5341502,-0.5835249,0.08952315,0.1758163,0.1400751,0.00172377,0.0433151,-0.05090269,172.17.160.76,10.64.29.0,5,unknown,2,2014-11-15 18:16:47.185,134,2014-11-15 18:16:20.024,3
2014-11-15 18:16:55.970,45211,1507.033,40.10476,-88.22189,239.5026,0.36,3.867188,8,10,1416097015,-0.4806366,0.5102844,-0.7371368,-32.64817,-3.275505,1.620972,96.73998,99.8223,15,0.1409712,0.2910025,-0.009610283,2.247509,-0.5168332,-0.5791762,0.1752599,0.3705548,0.04206164,-0.001769959,-0.04797556,-0.02962955,172.17.160.76,10.64.29.0,5,unknown,2,2014-11-15 18:16:47.185,134,2014-11-15 18:16:20.024,3
2014-11-15 18:16:56.003,45212,1507.067,40.10476,-88.22189,239.5026,0.36,3.867188,8,10,1416097015,-0.3797913,0.5300751,-0.7599792,-32.68256,-3.172188,1.252869,98.13578,101.2181,15,0.1964816,0.1694229,-0.06565544,2.250013,-0.508402,-0.5754095,0.2383387,0.3391963,-0.0262746,-0.07224134,-0.03389394,-0.004277221,172.17.160.76,10.64.29.0,5,unknown,2,2014-11-15 18:16:47.185,134,2014-11-15 18:16:20.024,3
2014-11-15 18:16:56.035,45213,1507.1,40.10476,-88.22189,239.5026,0.36,3.867188,8,10,1416097015,-0.4009247,0.6208801,-0.7233124,-32.1324,-3.860909,0.8512573,99.4197,102.502,15,0.06843498,0.1303942,-0.03565999,2.251597,-0.5015687,-0.5673766,0.2297622,0.1945261,-0.04717964,0.02567533,-0.007346442,-0.02053692,172.17.160.76,10.64.29.0,5,unknown,2,2014-11-15 18:16:47.185,134,2014-11-15 18:16:20.024,3
2014-11-15 18:16:56.070,45214,1507.133,40.10476,-88.22189,239.2822,0,7.382812,8,10,1416097016,-0.3473511,0.5979462,-0.7549286,-32.26994,-4.274124,0.7843018,99.91811,103.0004,15,-0.1750917,-0.005657087,0.08448292,2.254405,-0.4917569,-0.5639413,0.03027747,0.1580729,0.01607093,-0.001863306,0.08635879,0.02169565,172.17.160.76,10.64.29.0,5,unknown,2,2014-11-15 18:16:47.185,134,2014-11-15 18:16:20.024,3
2014-11-15 18:16:56.102,45215,1507.167,40.10476,-88.22189,239.2822,0,7.382812,8,10,1416097016,-0.5140533,0.5921021,-0.8167419,-32.23555,-4.997276,1.018524,100.4323,103.5146,20,-0.2319493,-0.1516526,0.1656611,2.255796,-0.488929,-0.5674913,-0.1461867,-0.01609023,0.1591145,0.04870811,0.0604279,-0.01047494,172.17.160.76,10.64.29.0,5,unknown,2,2014-11-15 18:16:47.185,134,2014-11-15 18:16:20.024,3
2014-11-15 18:16:56.136,45216,1507.2,40.10476,-88.22189,239.2822,0,7.382812,8,10,1416097016,-0.4345551,0.5888824,-0.8355103,-33.16395,-5.307198,0.6503296,100.9674,104.0497,20,-0.3359058,-0.0251429,0.02660098,2.25755,-0.4905081,-0.5766847,-0.2333152,-0.006124217,0.06608272,-0.0944902,0.03223637,-0.08066192,172.17.160.76,10.64.29.0,5,unknown,2,2014-11-15 18:16:47.185,134,2014-11-15 18:16:20.024,3
2014-11-15 18:16:56.170,45217,1507.233,40.10476,-88.22189,239.2822,0,7.382812,8,10,1416097016,-0.401535,0.6508636,-0.8592377,-33.26711,-5.961464,0.2153015,102.132,105.2143,20,-0.2317528,-0.07762209,0.119345,2.254572,-0.4909775,-0.5870532,-0.2185259,-0.002600857,0.1116895,-0.005750179,0.07893302,-0.1208915,172.17.160.76,10.64.29.0,5,unknown,2,2014-11-15 18:16:47.185,134,2014-11-15 18:16:20.024,3
2014-11-15 18:16:56.203,45218,1507.267,40.10476,-88.22189,239.2822,0,7.382812,8,10,1416097016,-0.5386963,0.6035767,-0.8074646,-33.26711,-6.030342,-0.1193237,102.5946,105.6769,20,-0.08571171,-0.1074799,0.114395,2.257147,-0.4906045,-0.592164,-0.04385252,-0.05871086,0.1500147,-0.03293673,0.08118539,-0.1303318,172.17.160.76,10.64.29.0,5,unknown,2,2014-11-15 18:16:47.185,134,2014-11-15 18:16:20.024,3
2014-11-15 18:16:56.236,45219,1507.3,40.10476,-88.22189,239.2822,0,7.382812,8,10,1416097016,-0.422287,0.6489716,-0.8618927,-33.30148,-6.478004,-0.2197571,103.2099,106.2922,20,-0.04827885,-0.1897742,0.05331702,2.26013,-0.4904029,-0.5936651,0.01188917,-0.07228113,0.04464767,-0.1216141,0.05215424,-0.0851403,172.17.160.76,10.64.29.0,5,unknown,2,2014-11-15 18:16:47.185,134,2014-11-15 18:16:20.024,3
2014-11-15 18:16:56.270,45220,1507.333,40.10476,-88.22189,239.2822,0,7.382812,8,10,1416097016,-0.5043182,0.6790009,-0.8699036,-33.43902,-6.684608,-0.152771,104.2282,107.3105,20,-0.01758512,-0.2637563,0.1080096,2.266127,-0.4945646,-0.5943611,0.07000047,-0.2594406,0.1697607,-0.03689595,0.1307859,-0.1707934,172.17.160.76,10.64.29.0,5,unknown,2,2014-11-15 18:16:47.185,134,2014-11-15 18:16:20.024,3
2014-11-15 18:16:56.303,45221,1507.367,40.10476,-88.22189,239.2822,0,7.382812,8,10,1416097016,-0.469635,0.6559448,-0.8580322,-34.02357,-6.856789,-0.3201294,104.4475,107.5298,20,-0.05989529,-0.1240389,0.03353852,2.269925,-0.4970238,-0.5947415,0.04992955,-0.1970808,0.1245205,-0.1093784,0.1187062,-0.1418291,172.17.160.76,10.64.29.0,5,unknown,2,2014-11-15 18:16:47.185,134,2014-11-15 18:16:20.024,3
2014-11-15 18:16:56.336,45222,1507.4,40.10476,-88.22189,239.2822,0,7.382812,8,10,1416097016,-0.4308319,0.6507111,-0.8716125,-34.53934,-7.4422,0.04794312,104.6298,107.7121,20,-0.102525,-0.004814463,0.05980155,2.272606,-0.4973187,-0.595711,-0.03066357,0.05739224,0.04761252,-0.05978616,0.08228943,-0.1320932,172.17.160.76,10.64.29.0,5,unknown,2,2014-11-15 18:16:47.185,134,2014-11-15 18:16:20.024,3
2014-11-15 18:16:56.370,45223,1507.433,40.10476,-88.22189,239.2822,0,7.382812,8,10,1416097016,-0.475647,0.6412659,-0.8803711,-34.88319,-7.579941,-0.4874573,105.1769,108.2592,20,-0.05349572,-0.004814995,0.0628024,2.274225,-0.494581,-0.5976225,-0.01802381,0.03328118,0.09202036,-0.03843961,0.08803244,-0.1439993,172.17.160.76,10.64.29.0,5,unknown,2,2014-11-15 18:16:47.185,134,2014-11-15 18:16:20.024,3
2014-11-15 18:16:56.403,45224,1507.467,40.10476,-88.22189,239.2822,0,7.382812,8,10,1416097016,-0.4765015,0.6448517,-0.8878784,-34.67688,-7.993164,-0.219696,105.375,108.4574,20,-0.02859596,0.04106434,-0.05168929,2.276756,-0.4914334,-0.5984752,0.02055773,0.08704673,0.03802333,-0.1004981,0.06694195,-0.1470058,172.17.160.76,10.64.29.0,5,unknown,2,2014-11-15 18:16:47.185,134,2014-11-15 18:16:20.024,3
2014-11-15 18:16:56.436,45225,1507.5,40.10476,-88.22189,239.2822,0,7.382812,8,10,1416097016,-0.5076599,0.720993,-0.8802032,-34.50496,-7.476624,-0.3201294,104.9645,108.0468,20,0.004477573,-0.07825113,-0.09065481,2.275778,-0.4880164,-0.5956911,0.05920618,0.02566766,-0.0675315,-0.1038729,0.1292266,-0.1483999,172.17.160.76,10.64.29.0,5,unknown,2,2014-11-15 18:16:47.185,134,2014-11-15 18:16:20.024,3
2014-11-15 18:16:56.470,45226,1507.533,40.10476,-88.22189,239.2822,0,7.382812,8,10,1416097016,-0.5051727,0.7289886,-0.9180908,-34.50496,-7.889862,0.4161377,104.646,107.7284,20,0.02354767,-0.1556788,-0.07096579,2.275008,-0.4895749,-0.5926176,0.09108061,-0.07841174,-0.05864569,-0.09804907,0.1799607,-0.194881,172.17.160.76,10.64.29.0,5,unknown,2,2014-11-15 18:16:47.185,134,2014-11-15 18:16:20.024,3
2014-11-15 18:16:56.503,45227,1507.567,40.10476,-88.22189,239.2822,0,7.382812,8,10,1416097016,-0.528656,0.7321014,-0.9358521,-34.74565,-7.855423,0.1149902,104.6533,107.7356,20,0.02568539,-0.08862414,-0.05575994,2.274994,-0.4916244,-0.5895509,0.08892172,-0.03256742,-0.03822813,-0.1285798,0.178784,-0.1899792,172.17.160.76,10.64.29.0,5,unknown,2,2014-11-15 18:16:47.185,134,2014-11-15 18:16:20.024,3
2014-11-15 18:16:56.536,45228,1507.6,40.10476,-88.22189,239.2822,0,7.382812,8,10,1416097016,-0.5155029,0.6995239,-1.01123,-34.74565,-8.613007,-0.2866516,104.7351,107.8174,20,0.1181029,-0.1357525,0.04130217,2.276603,-0.4925001,-0.585196,0.1398606,-0.07672735,0.02716035,-0.09580655,0.1583917,-0.246714,172.17.160.76,10.64.29.0,5,unknown,2,2014-11-15 18:16:47.185,134,2014-11-15 18:16:20.024,3
2014-11-15 18:16:56.569,45229,1507.633,40.10476,-88.22189,239.2822,0,7.382812,8,10,1416097016,-0.5468903,0.6750641,-1.010422,-35.05511,-8.440834,-0.5209045,104.8338,107.9161,20,0.1501839,-0.08065703,0.02236549,2.279654,-0.4924121,-0.5828207,0.185614,-0.06908061,0.0578122,-0.1207952,0.1491428,-0.2755088,172.17.160.76,10.64.29.0,5,unknown,2,2014-11-15 18:16:47.185,134,2014-11-15 18:16:20.024,3
2014-11-15 18:16:56.603,45230,1507.667,40.10476,-88.22189,239.2822,0,7.382812,8,10,1416097016,-0.5385742,0.6195679,-0.9834137,-34.78004,-8.440834,-0.05239868,104.8654,107.9477,20,0.2915882,0.06234833,-0.1684777,2.285722,-0.4878208,-0.5740805,0.2990883,0.06488597,-0.06503928,-0.1595048,0.1247227,-0.2753273,172.17.160.76,10.64.29.0,5,unknown,2,2014-11-15 18:16:47.185,134,2014-11-15 18:16:20.024,3
2014-11-15 18:16:56.636,45231,1507.7,40.10476,-88.22189,239.2822,0,7.382812,8,10,1416097016,-0.439621,0.5397339,-0.8885498,-34.81442,-7.648811,0.1149292,104.6305,107.7128,20,0.3203304,-0.03976366,-0.1807994,2.287108,-0.4835454,-0.562866,0.3762272,0.1479938,-0.1710388,-0.117194,0.05960366,-0.209438,172.17.160.76,10.64.29.0,5,unknown,2,2014-11-15 18:16:47.185,134,2014-11-15 18:16:20.024,3
2014-11-15 18:16:56.669,45232,1507.733,40.10476,-88.22189,239.2822,0,7.382812,8,10,1416097016,-0.4620056,0.5441589,-0.8557587,-34.47057,-6.822357,0.3156738,103.5653,106.6476,20,0.302941,-0.2433272,-0.1223632,2.288244,-0.4816667,-0.550257,0.3930545,-0.07607222,-0.1521137,-0.04474536,0.01682763,-0.1331411,172.17.160.76,10.64.29.0,5,unknown,2,2014-11-15 18:16:47.185,134,2014-11-15 18:16:20.024,3
2014-11-15 18:16:56.703,45233,1507.767,40.10476,-88.22189,239.2822,0,7.382812,8,10,1416097016,-0.3960724,0.524765,-0.8373718,-34.57372,-6.168076,-0.1862793,103.2284,106.3107,20,0.2229319,-0.2133426,-0.09643013,2.290774,-0.4852552,-0.5387877,0.350135,-0.179691,-0.08668684,-0.0428823,0.04417046,-0.1171922,172.17.160.76,10.64.29.0,5,unknown,2,2014-11-15 18:16:47.185,134,2014-11-15 18:16:20.024,3
2014-11-15 18:16:56.736,45234,1507.8,40.10476,-88.22189,239.2822,0,7.382812,8,10,1416097016,-0.4532166,0.5127258,-0.8485565,-34.53934,-5.513802,-0.1528931,102.5427,105.625,20,0.05856318,-0.2170316,-0.03214515,2.292829,-0.4881018,-0.5291529,0.1624586,-0.08259743,-0.0451366,0.002989226,0.02426567,-0.05667667,172.17.160.76,10.64.29.0,5,unknown,2,2014-11-15 18:16:47.185,134,2014-11-15 18:16:20.024,3
2014-11-15 18:16:56.769,45235,1507.833,40.10476,-88.22189,239.2822,0,7.382812,8,10,1416097016,-0.4407349,0.4897003,-0.8410034,-34.26425,-5.582672,-0.01901245,102.4727,105.555,20,-0.1087808,-0.1201395,-0.01614754,2.29427,-0.4924244,-0.5268929,0.01402053,-0.1617315,0.01975282,-0.07627992,-0.0032926,-0.1182518,172.17.160.76,10.64.29.0,5,unknown,2,2014-11-15 18:16:47.185,134,2014-11-15 18:16:20.024,3
2014-11-15 18:16:56.803,45236,1507.867,40.10476,-88.22189,239.2822,0,7.382812,8,10,1416097016,-0.3517761,0.5872192,-0.8040314,-34.29864,-5.272751,0.4159851,101.7511,104.8334,20,-0.08484644,0.1022121,-0.1190915,2.290754,-0.4901763,-0.5282386,-0.05564271,0.2421715,-0.1084218,0.0008045918,0.01484705,-0.07320922,172.17.160.76,10.64.29.0,5,unknown,2,2014-11-15 18:16:47.185,134,2014-11-15 18:16:20.024,3
2014-11-15 18:16:56.836,45237,1507.9,40.10476,-88.22189,239.2822,0,7.382812,8,10,1416097016,-0.4291382,0.5644836,-0.8081512,-34.09232,-4.85952,0.7506714,100.9344,104.0167,20,0.04875848,-0.4198399,-0.01406975,2.288455,-0.4904718,-0.5266531,0.07600074,-0.2143021,-0.04338375,0.04995913,0.08793339,-0.03656894,172.17.160.76,10.64.29.0,5,unknown,2,2014-11-15 18:16:47.185,134,2014-11-15 18:16:20.024,3
2014-11-15 18:16:56.870,45238,1507.933,40.10476,-88.22189,239.2822,0,7.382812,8,10,1416097016,-0.4177551,0.4767761,-0.7261963,-34.02356,-4.23967,0.6837463,100.2324,103.3147,20,-0.01498161,-0.3479745,-0.06971117,2.290334,-0.5004863,-0.5236585,0.09710748,-0.3670801,-0.01136147,-0.0415882,0.05520036,-0.03669765,172.17.160.76,10.64.29.0,5,unknown,2,2014-11-15 18:16:47.185,134,2014-11-15 18:16:20.024,3
2014-11-15 18:16:56.903,45239,1507.967,40.10476,-88.22189,239.2822,0,7.382812,8,10,1416097016,-0.4142609,0.4585114,-0.7302399,-33.54217,-4.101929,0.6837463,100.1795,103.2618,20,-0.08206131,-0.3236609,-0.09056159,2.287316,-0.5106232,-0.5211855,-0.01437991,-0.1520357,-0.1053451,0.00832124,-0.01759243,0.04380674,172.17.160.76,10.64.29.0,5,unknown,2,2014-11-15 18:16:47.185,134,2014-11-15 18:16:20.024,3
2014-11-15 18:16:56.936,45240,1508,40.10476,-88.22189,239.2822,0,7.382812,8,10,1416097016,-0.4319763,0.5162048,-0.769455,-33.33585,-3.413223,1.018372,99.32607,102.4084,20,-0.03738013,-0.3500645,-0.06645386,2.284751,-0.5190203,-0.5203869,-0.002912476,-0.304697,-0.05842535,0.005976019,-0.03167022,-0.006247825,172.17.160.76,10.64.29.0,5,unknown,2,2014-11-15 18:16:47.185,134,2014-11-15 18:16:20.024,3
2014-11-15 18:16:56.970,45241,1508.033,40.10476,-88.22189,239.2822,0,7.382812,8,10,1416097016,-0.4192657,0.5402679,-0.7243195,-33.30146,-3.034439,1.520355,98.49966,101.582,20,-0.03823447,-0.1706761,-0.09098157,2.283661,-0.5280318,-0.518957,0.03976321,-0.2175055,-0.04751128,0.005521488,0.02023006,-0.01938516,172.17.160.76,10.64.29.0,5,unknown,2,2014-11-15 18:16:47.185,134,2014-11-15 18:16:20.024,3
2014-11-15 18:16:57.003,45242,1508.067,40.10476,-88.22189,239.2822,0,7.382812,8,10,1416097016,-0.4059906,0.4992065,-0.7234955,-33.30146,-2.827812,1.788086,98.09045,101.1728,20,-0.01382607,-0.1650878,-0.05283019,2.282308,-0.532362,-0.5170525,0.0282174,-0.06997432,-0.07004388,0.02195458,0.04594783,0.02466135,172.17.160.76,10.64.29.0,5,unknown,2,2014-11-15 18:16:47.185,134,2014-11-15 18:16:20.024,3
2014-11-15 18:16:57.036,45243,1508.1,40.10476,-88.22189,239.2822,0,7.382812,8,10,1416097016,-0.3840942,0.4627533,-0.6989746,-33.33584,-2.517891,2.29007,97.34933,100.4316,20,-0.004398477,-0.1955485,-0.005259211,2.28223,-0.5365645,-0.5147614,0.05248705,-0.1289815,-0.002510766,0.05709384,0.004697334,0.03468199,172.17.160.76,10.64.29.0,5,unknown,2,2014-11-15 18:16:47.185,134,2014-11-15 18:16:20.024,3
2014-11-15 18:16:57.069,45244,1508.133,40.10476,-88.22189,238.7235,0.32,91.40625,8,10,1416097017,-0.4137573,0.4569092,-0.6722107,-33.12952,-2.517891,2.490845,97.13819,100.2205,20,0.02970516,-0.1114362,0.0194701,2.285039,-0.5382239,-0.5142432,0.08236219,-0.03932846,0.03293602,0.03840006,-0.01894518,0.07182025,172.17.160.76,10.64.29.0,5,unknown,2,2014-11-15 18:16:47.185,134,2014-11-15 18:16:20.024,3
2014-11-15 18:16:57.103,45245,1508.167,40.10476,-88.22189,238.7235,0.32,91.40625,8,10,1416097017,-0.3821564,0.4056702,-0.6888123,-32.9576,-1.588127,2.658173,94.86349,97.9458,20,0.0402907,-0.1431918,0.03624696,2.285946,-0.5381981,-0.5136249,0.09727336,-0.04462509,0.0360367,0.03217363,-0.02536474,0.07720449,172.17.160.76,10.64.29.0,5,unknown,2,2014-11-15 18:16:47.185,134,2014-11-15 18:16:20.024,3
2014-11-15 18:16:57.136,45246,1508.2,40.10476,-88.22189,238.7235,0.32,91.40625,8,10,1416097017,-0.3762817,0.4197845,-0.6603088,-32.40745,-1.106033,2.725098,94.0275,97.10981,20,-0.0149888,-0.07648385,0.001776328,2.290707,-0.5389968,-0.5107949,0.06319228,-0.03404655,0.02772802,0.05948371,-0.08201046,0.06047515,172.17.160.76,10.64.29.0,5,unknown,2,2014-11-15 18:16:47.185,134,2014-11-15 18:16:20.024,3
2014-11-15 18:16:57.170,45247,1508.233,40.10476,-88.22189,238.7235,0.32,91.40625,8,10,1416097017,-0.3542938,0.4489746,-0.678833,-32.0636,-0.8994141,2.591248,94.01847,97.10078,20,-0.05561346,-0.07937179,0.03906511,2.291745,-0.5379531,-0.5097827,0.03348272,0.05078432,0.002810326,0.07094879,-0.06820301,0.0892597,172.17.160.76,10.64.29.0,5,unknown,2,2014-11-15 18:16:47.185,134,2014-11-15 18:16:20.024,3
2014-11-15 18:16:57.203,45248,1508.267,40.10476,-88.22189,238.7235,0.32,91.40625,8,10,1416097017,-0.412323,0.4067383,-0.6857452,-31.58221,-0.6239395,2.390381,93.98662,97.06893,20,-0.1452275,-0.09300504,0.05737408,2.29443,-0.5373868,-0.5108402,-0.01914961,-0.06956767,0.1032143,0.07566143,-0.03560231,0.07233018,172.17.160.76,10.64.29.0,5,unknown,2,2014-11-15 18:16:47.185,134,2014-11-15 18:16:20.024,3
2014-11-15 18:16:57.236,45249,1508.3,40.10476,-88.22189,238.7235,0.32,91.40625,8,10,1416097017,-0.3718262,0.3912201,-0.6479034,-31.37589,-0.2795715,2.39032,93.90446,96.98678,20,-0.2292404,-0.01895638,0.008188954,2.295572,-0.5378382,-0.5126916,-0.07766113,-0.02619568,0.07394022,0.03520622,-0.0656741,0.06196573,172.17.160.76,10.64.29.0,5,unknown,2,2014-11-15 18:16:47.185,134,2014-11-15 18:16:20.024,3
2014-11-15 18:16:57.270,45250,1508.333,40.10476,-88.22189,238.7235,0.32,91.40625,8,10,1416097017,-0.3365326,0.4470825,-0.6225586,-32.02919,0.09922028,2.691528,92.66808,95.75039,20,-0.3585752,-0.09362556,0.1027519,2.292929,-0.5375813,-0.5194114,-0.2470204,0.04378839,0.04415981,0.09155884,-0.08918848,0.1119971,172.17.160.76,10.64.29.0,5,unknown,2,2014-11-15 18:16:47.185,134,2014-11-15 18:16:20.024,3
2014-11-15 18:16:57.303,45251,1508.367,40.10476,-88.22189,238.7235,0.32,91.40625,8,10,1416097017,-0.3742371,0.4358063,-0.6340942,-32.06358,0.4780197,2.591125,91.96093,95.04324,20,-0.4045549,-0.1209347,0.1420551,2.290965,-0.5389871,-0.5284623,-0.3113657,-0.05423498,0.1457867,0.1067162,-0.0571235,0.1185937,172.17.160.76,10.64.29.0,5,unknown,2,2014-11-15 18:16:47.185,134,2014-11-15 18:16:20.024,3
2014-11-15 18:16:57.336,45252,1508.4,40.10476,-88.22189,238.7235,0.32,91.40625,8,10,1416097017,-0.3824615,0.3857117,-0.6047668,-32.16674,0.9256744,2.089203,91.81483,94.89714,20,-0.5002913,-0.07243852,0.08534899,2.288628,-0.5418838,-0.5434234,-0.3890898,-0.01611875,0.1229258,0.05644385,-0.1041664,0.1017129,172.17.160.76,10.64.29.0,5,unknown,2,2014-11-15 18:16:47.185,134,2014-11-15 18:16:20.024,3
2014-11-15 18:16:57.370,45253,1508.433,40.10476,-88.22189,238.7235,0.32,91.40625,8,10,1416097017,-0.3638458,0.4523773,-0.5656128,-31.37589,1.511086,2.39032,90.75757,93.83988,20,-0.6689267,-0.1346723,0.1355424,2.281008,-0.5458336,-0.5624148,-0.5660673,-0.0170695,0.1267678,0.08055697,-0.1254852,0.1471794,172.17.160.76,10.64.29.0,5,unknown,2,2014-11-15 18:16:47.185,134,2014-11-15 18:16:20.024,3
