time,timestamp,recordtime,lat,long,alt,speed,course,verticalAccuracy,horizontalAccuracy,locTimeStamp,accelerationX,accelerationY,accelerationZ,HeadingX,HeadingY,HeadingZ,TrueHeading,MagneticHeading,HeadingAccuracy,RotationX,RotationY,RotationZ,motionYaw,motionRoll,motionPitch,motionRotationRateX,motionRotationRateY,motionRotationRateZ,motionUserAccelerationX,motionUserAccelerationY,motionUserAccelerationZ,en0,pdp_ip0,DeviceOrientation,Activity,Activity Confidence,Activity Start,Steps,Last Step Date,State
2014-11-15 18:16:49.936,45030,1501,40.10473,-88.22189,241.6771,0.41,116.3672,12,10,1416097009,-0.4234009,0.5577545,-0.7171021,-30.68819,2.957367,3.394684,86.20271,89.28503,15,-0.07993717,-0.05749232,-0.02017158,2.238022,-0.531547,-0.5763568,-0.0001154546,-0.00135511,-0.007146394,0.0009431674,0.01394133,-0.002864526,172.17.160.76,10.64.29.0,5,unknown,2,2014-11-15 18:16:47.185,134,2014-11-15 18:16:20.024,3
2014-11-15 18:16:49.970,45031,1501.033,40.10473,-88.22189,241.6771,0.41,116.3672,12,10,1416097009,-0.4303741,0.5566101,-0.7183075,-31.10081,2.268646,2.926178,86.26331,89.34563,15,-0.1226125,-0.0754873,-0.01373765,2.237502,-0.5317866,-0.5775999,-0.03959512,-0.005514559,0.002534201,-0.001363724,0.01166349,0.003010422,172.17.160.76,10.64.29.0,5,unknown,2,2014-11-15 18:16:47.185,134,2014-11-15 18:16:20.024,3
2014-11-15 18:16:50.003,45032,1501.067,40.10473,-88.22189,241.6771,0.41,116.3672,12,10,1416097009,-0.4329376,0.5555267,-0.7221985,-30.99766,2.509705,3.02655,86.29117,89.37348,15,-0.1716714,-0.06796067,-0.005022455,2.2362,-0.5329767,-0.5800791,-0.09078018,-0.006529292,0.005905701,-0.00450496,0.006734742,-0.003485586,172.17.160.76,10.64.29.0,5,unknown,2,2014-11-15 18:16:47.185,134,2014-11-15 18:16:20.024,3
2014-11-15 18:16:50.037,45033,1501.1,40.10473,-88.22189,241.6771,0.41,116.3672,12,10,1416097009,-0.429657,0.558548,-0.72229,-31.27274,2.785179,2.624969,86.34663,89.42895,15,-0.1984724,-0.09631801,0.03738785,2.234034,-0.5344931,-0.5844758,-0.1279999,-0.01049916,0.03044888,-0.005453389,0.004878392,-0.008500307,172.17.160.76,10.64.29.0,5,unknown,2,2014-11-15 18:16:47.185,134,2014-11-15 18:16:20.024,3
2014-11-15 18:16:50.070,45034,1501.133,40.10473,-88.22189,241.2269,0.16,133.9453,8,10,1416097010,-0.4318695,0.5561371,-0.7341614,-30.92888,2.991791,3.428162,86.7513,89.83361,15,-0.2017369,-0.09508604,0.05969768,2.233042,-0.5359496,-0.5886838,-0.13663,-0.02940697,0.05904138,-0.006132029,0.003571029,-0.00224187,172.17.160.76,10.64.29.0,5,unknown,2,2014-11-15 18:16:47.185,134,2014-11-15 18:16:20.024,3
2014-11-15 18:16:50.103,45035,1501.167,40.10473,-88.22189,241.2269,0.16,133.9453,8,10,1416097010,-0.4317322,0.5547333,-0.7262268,-30.96326,2.612999,3.394684,87.23386,90.31618,15,-0.2038818,-0.08653622,0.06611963,2.232754,-0.5367583,-0.5916502,-0.135615,-0.0292802,0.07602152,-0.005558851,0.0005417705,-0.007330643,172.17.160.76,10.64.29.0,5,unknown,2,2014-11-15 18:16:47.185,134,2014-11-15 18:16:20.024,3
2014-11-15 18:16:50.136,45036,1501.2,40.10473,-88.22189,241.2269,0.16,133.9453,8,10,1416097010,-0.4392548,0.5623932,-0.718338,-30.44749,2.578568,3.963593,86.76638,89.84869,15,-0.1856788,-0.06119465,0.04601676,2.232915,-0.5371653,-0.596927,-0.1302646,-0.003772165,0.07719512,-0.01024414,-0.007995902,-0.01858682,172.17.160.76,10.64.29.0,5,unknown,2,2014-11-15 18:16:47.185,134,2014-11-15 18:16:20.024,3
2014-11-15 18:16:50.170,45037,1501.233,40.10473,-88.22189,241.2269,0.16,133.9453,8,10,1416097010,-0.4300232,0.5618439,-0.7223511,-30.61942,2.544144,3.72934,86.7796,89.86192,15,-0.1418943,-0.03692047,0.02687396,2.232228,-0.5376979,-0.601835,-0.08857344,0.01934927,0.0463728,-0.02245326,-0.003335608,-0.02198383,172.17.160.76,10.64.29.0,5,unknown,2,2014-11-15 18:16:47.185,134,2014-11-15 18:16:20.024,3
2014-11-15 18:16:50.202,45038,1501.267,40.10473,-88.22189,241.2269,0.16,133.9453,8,10,1416097010,-0.4256287,0.5645142,-0.7102509,-30.55064,3.163986,3.461639,86.77267,89.85498,15,-0.1247821,-0.01045184,0.01527296,2.232374,-0.5366594,-0.6034922,-0.0576316,0.04163186,0.04424917,-0.01283522,-0.008729166,-0.02084249,172.17.160.76,10.64.29.0,5,unknown,2,2014-11-15 18:16:47.185,134,2014-11-15 18:16:20.024,3
2014-11-15 18:16:50.236,45039,1501.3,40.10473,-88.22189,241.2269,0.16,133.9453,8,10,1416097010,-0.4276276,0.5788727,-0.6946869,-30.8945,3.301735,3.126953,86.76721,89.84953,15,-0.1226364,-0.01368066,0.009940515,2.232302,-0.5355898,-0.6044163,-0.05437056,0.05957428,0.02840813,-0.00569672,-0.003767749,-0.002640202,172.17.160.76,10.64.29.0,5,unknown,2,2014-11-15 18:16:47.185,134,2014-11-15 18:16:20.024,3
2014-11-15 18:16:50.270,45040,1501.333,40.10473,-88.22189,241.2269,0.16,133.9453,8,10,1416097010,-0.4249725,0.5676575,-0.7167969,-30.65381,3.74939,3.160461,86.74076,89.82307,15,-0.1142557,-0.07399753,0.04355893,2.232093,-0.5348957,-0.6073226,-0.04384734,0.0002835903,0.05777752,-0.00269819,0.005546777,-0.003849035,172.17.160.76,10.64.29.0,5,unknown,2,2014-11-15 18:16:47.185,134,2014-11-15 18:16:20.024,3
2014-11-15 18:16:50.303,45041,1501.367,40.10473,-88.22189,241.2269,0.16,133.9453,8,10,1416097010,-0.4275513,0.5664215,-0.7102203,-30.72257,3.611656,3.562012,86.72118,89.8035,15,-0.113105,-0.04653022,0.02246962,2.232911,-0.5342587,-0.6095085,-0.05976214,0.02991612,0.04100742,-0.004806786,-0.0136266,-0.007648537,172.17.160.76,10.64.29.0,5,unknown,2,2014-11-15 18:16:47.185,134,2014-11-15 18:16:20.024,3
2014-11-15 18:16:50.336,45042,1501.4,40.10473,-88.22189,241.2269,0.16,133.9453,8,10,1416097010,-0.4248657,0.5378265,-0.744812,-30.61942,3.577217,3.72934,86.67587,89.75818,15,0.01692359,-0.1306206,0.01092509,2.233462,-0.5346203,-0.6099606,0.02651644,-0.05617635,0.04341252,-0.02049167,-0.008595632,-0.01552966,172.17.160.76,10.64.29.0,5,unknown,2,2014-11-15 18:16:47.185,134,2014-11-15 18:16:20.024,3
2014-11-15 18:16:50.370,45043,1501.433,40.10473,-88.22189,241.2269,0.16,133.9453,8,10,1416097010,-0.4370575,0.5364838,-0.7242279,-30.79134,3.198418,3.695831,86.64814,89.73045,15,0.05561666,0.01122949,-0.05746915,2.23613,-0.5343854,-0.6060985,0.1002219,-0.01929144,0.007235283,-0.004641081,-0.04032257,-0.03597863,172.17.160.76,10.64.29.0,5,unknown,2,2014-11-15 18:16:47.185,134,2014-11-15 18:16:20.024,3
2014-11-15 18:16:50.403,45044,1501.467,40.10473,-88.22189,241.2269,0.16,133.9453,8,10,1416097010,-0.4084625,0.5649109,-0.7127838,-30.65381,2.991814,3.227325,86.65273,89.73504,15,0.09726583,0.01847914,-0.07987805,2.237013,-0.532964,-0.6024496,0.1217691,0.07702691,-0.04117027,-0.01841801,-0.03017876,-0.01455576,172.17.160.76,10.64.29.0,5,unknown,2,2014-11-15 18:16:47.185,134,2014-11-15 18:16:20.024,3
2014-11-15 18:16:50.436,45045,1501.5,40.10473,-88.22189,241.2269,0.16,133.9453,8,10,1416097010,-0.4155731,0.5622406,-0.688736,-30.75695,2.888504,2.926178,86.6844,89.76672,15,0.09615343,-0.03463441,-0.07803062,2.23838,-0.5291036,-0.5954983,0.1815246,0.04917759,-0.06701646,0.02320639,0.005011886,0.01413518,172.17.160.76,10.64.29.0,5,unknown,2,2014-11-15 18:16:47.185,134,2014-11-15 18:16:20.024,3
2014-11-15 18:16:50.470,45046,1501.533,40.10473,-88.22189,241.2269,0.16,133.9453,8,10,1416097010,-0.3971863,0.5604706,-0.6819763,-30.58502,3.198433,2.75882,86.8891,89.97141,15,0.02152899,-0.009046759,-0.07124755,2.23936,-0.5272165,-0.5899083,0.114338,0.05351555,-0.0593097,0.008123486,-0.0006665596,0.03175069,172.17.160.76,10.64.29.0,5,unknown,2,2014-11-15 18:16:47.185,134,2014-11-15 18:16:20.024,3
2014-11-15 18:16:50.504,45047,1501.567,40.10473,-88.22189,241.2269,0.16,133.9453,8,10,1416097010,-0.3844299,0.5747223,-0.701004,-30.72256,3.405045,2.75882,86.6393,89.72161,15,-0.05223311,-0.071312,-0.01928661,2.239185,-0.5257291,-0.5876595,0.03101689,0.004996414,-0.01679227,0.02039214,0.01830871,0.03641223,172.17.160.76,10.64.29.0,5,unknown,2,2014-11-15 18:16:47.185,134,2014-11-15 18:16:20.024,3
2014-11-15 18:16:50.536,45048,1501.6,40.10473,-88.22189,241.2269,0.16,133.9453,8,10,1416097010,-0.4174194,0.5592346,-0.7099304,-30.61942,3.508347,2.859222,86.24972,89.33203,15,-0.08530664,-0.0499396,-0.005250955,2.239357,-0.5255957,-0.5876734,-0.01597259,0.01054818,0.01207284,0.02902035,0.01403997,0.01409186,172.17.160.76,10.64.29.0,5,unknown,2,2014-11-15 18:16:47.185,134,2014-11-15 18:16:20.024,3
2014-11-15 18:16:50.570,45049,1501.633,40.10473,-88.22189,241.2269,0.16,133.9453,8,10,1416097010,-0.4158936,0.5419922,-0.7199402,-30.61942,3.921577,2.859161,85.69416,88.77647,15,-0.06081275,-0.08821348,-0.006605705,2.239615,-0.5251982,-0.5887485,-0.003201785,-0.01496052,0.01189235,0.005378965,-0.002571058,0.006569996,172.17.160.76,10.64.29.0,5,unknown,2,2014-11-15 18:16:47.185,134,2014-11-15 18:16:20.024,3
2014-11-15 18:16:50.602,45050,1501.667,40.10473,-88.22189,241.2269,0.16,133.9453,8,10,1416097010,-0.407608,0.5489502,-0.723526,-30.6538,3.611656,3.16037,85.81931,88.90163,15,-0.02873098,-0.07038096,-0.03529194,2.240036,-0.525493,-0.5879867,0.02456267,-0.01934453,-0.004158177,-0.002024586,-0.01101632,-0.005974062,172.17.160.76,10.64.29.0,5,unknown,2,2014-11-15 18:16:47.185,134,2014-11-15 18:16:20.024,3
2014-11-15 18:16:50.636,45051,1501.7,40.10473,-88.22189,241.2269,0.16,133.9453,8,10,1416097010,-0.4114227,0.5661163,-0.7241516,-30.75695,3.439468,2.993042,86.26104,89.34335,15,0.02262781,-0.01658137,-0.08402912,2.240511,-0.5246621,-0.5857975,0.08014443,0.01540007,-0.043458,0.008238419,0.006843547,-0.01649537,172.17.160.76,10.64.29.0,5,unknown,2,2014-11-15 18:16:47.185,134,2014-11-15 18:16:20.024,3
2014-11-15 18:16:50.670,45052,1501.733,40.10473,-88.22189,241.2269,0.16,133.9453,8,10,1416097010,-0.4090576,0.5591583,-0.7058868,-30.61942,2.888496,2.591492,86.29822,89.38053,15,0.01715049,-0.0886039,-0.0536049,2.240193,-0.5232781,-0.5823296,0.08979411,0.01311885,-0.06367175,0.002885418,0.007997114,0.01721693,172.17.160.76,10.64.29.0,5,unknown,2,2014-11-15 18:16:47.185,134,2014-11-15 18:16:20.024,3
2014-11-15 18:16:50.703,45053,1501.767,40.10473,-88.22189,241.2269,0.16,133.9453,8,10,1416097010,-0.3960876,0.5652924,-0.7211609,-30.4131,3.163994,2.457611,86.88695,89.96926,15,0.01390356,-0.1023202,-0.04092719,2.240107,-0.523555,-0.5810064,0.0832873,-0.02280731,-0.03729808,0.008866042,0.01029287,0.01805136,172.17.160.76,10.64.29.0,5,unknown,2,2014-11-15 18:16:47.185,134,2014-11-15 18:16:20.024,3
2014-11-15 18:16:50.736,45054,1501.8,40.10473,-88.22189,241.2269,0.16,133.9453,8,10,1416097010,-0.415741,0.5392914,-0.6894379,-30.65379,3.267303,2.223358,87.23709,90.3194,15,7.749799e-05,-0.06726346,-0.04281378,2.241675,-0.5233376,-0.5795152,0.07042362,-0.01518374,-0.01385139,0.02007303,0.01366091,0.007314646,172.17.160.76,10.64.29.0,5,unknown,2,2014-11-15 18:16:47.185,134,2014-11-15 18:16:20.024,3
2014-11-15 18:16:50.770,45055,1501.833,40.10473,-88.22189,241.2269,0.16,133.9453,8,10,1416097010,-0.3940125,0.522583,-0.665863,-30.48187,2.888512,2.457611,87.23839,90.3207,15,0.0118018,-0.07897391,-0.04504231,2.241667,-0.5240875,-0.5777332,0.06622319,0.001672127,-0.03285313,0.004990811,-0.01341163,0.04767,172.17.160.76,10.64.29.0,5,unknown,2,2014-11-15 18:16:47.185,134,2014-11-15 18:16:20.024,3
2014-11-15 18:16:50.802,45056,1501.867,40.10473,-88.22189,241.2269,0.16,133.9453,8,10,1416097010,-0.3416901,0.4840698,-0.6407471,-30.6538,2.716331,2.290314,87.25196,90.33427,15,0.07676136,-0.04902187,-0.01434485,2.242909,-0.52421,-0.5742427,0.1228072,-0.0002043661,-0.006528206,0.05691928,-0.03781275,0.06687319,172.17.160.76,10.64.29.0,5,unknown,2,2014-11-15 18:16:47.185,134,2014-11-15 18:16:20.024,3
2014-11-15 18:16:50.836,45057,1501.9,40.10473,-88.22189,241.2269,0.16,133.9453,8,10,1416097010,-0.3354797,0.4584198,-0.6383972,-30.03487,2.371986,2.557983,87.27514,90.35745,15,0.1012233,-0.01056476,0.01442608,2.244726,-0.5227866,-0.5717838,0.1536924,0.03605217,0.01265368,0.07818678,-0.05706315,0.08786705,172.17.160.76,10.64.29.0,5,unknown,2,2014-11-15 18:16:47.185,134,2014-11-15 18:16:20.024,3
2014-11-15 18:16:50.870,45058,1501.933,40.10473,-88.22189,241.2269,0.16,133.9453,8,10,1416097010,-0.4058075,0.4270325,-0.6785583,-30.75695,2.544167,2.524567,87.72501,90.80733,15,0.183156,-0.04535203,0.05639537,2.25165,-0.5172423,-0.5660971,0.2355566,0.02591985,0.08341292,0.06138872,-0.09077022,0.06875296,172.17.160.76,10.64.29.0,5,unknown,2,2014-11-15 18:16:47.185,134,2014-11-15 18:16:20.024,3
2014-11-15 18:16:50.903,45059,1501.967,40.10473,-88.22189,241.2269,0.16,133.9453,8,10,1416097010,-0.4139709,0.3992462,-0.6439362,-30.55064,2.681908,2.591492,87.51921,90.60152,15,0.1689046,0.1094676,-0.1274339,2.257616,-0.5129673,-0.5601982,0.2592916,0.06885121,0.00075443,-0.003972225,-0.1162235,0.06825413,172.17.160.76,10.64.29.0,5,unknown,2,2014-11-15 18:16:47.185,134,2014-11-15 18:16:20.024,3
2014-11-15 18:16:50.936,45060,1502,40.10473,-88.22189,241.2269,0.16,133.9453,8,10,1416097010,-0.2922058,0.4250031,-0.5860901,-30.86012,2.234238,2.290344,88.28793,91.37024,15,0.1378386,0.04598267,-0.09368441,2.258609,-0.505647,-0.5499941,0.2107882,0.202739,-0.1427206,0.04991998,-0.1094437,0.1333861,172.17.160.76,10.64.29.0,5,unknown,2,2014-11-15 18:16:47.185,134,2014-11-15 18:16:20.024,3
2014-11-15 18:16:50.970,45061,1502.033,40.10473,-88.22189,241.2269,0.16,133.9453,8,10,1416097010,-0.3199615,0.4550934,-0.6065369,-30.68819,2.268669,1.721405,88.62585,91.70816,15,0.1384508,-0.08063519,0.02453251,2.259463,-0.5015424,-0.5434194,0.2030066,0.04751731,-0.02144052,0.1272033,-0.08238868,0.1601513,172.17.160.76,10.64.29.0,5,unknown,2,2014-11-15 18:16:47.185,134,2014-11-15 18:16:20.024,3
2014-11-15 18:16:51.003,45062,1502.067,40.10473,-88.22189,241.2269,0.16,133.9453,8,10,1416097010,-0.3700562,0.4432526,-0.6447449,-31.03203,1.786575,1.520599,89.43283,92.51514,15,0.1075246,-0.04759122,0.03649862,2.262275,-0.5000544,-0.5400469,0.2049027,-0.01470611,0.04085208,0.09127527,-0.05908283,0.1461298,172.17.160.76,10.64.29.0,5,unknown,2,2014-11-15 18:16:47.185,134,2014-11-15 18:16:20.024,3
2014-11-15 18:16:51.036,45063,1502.1,40.10473,-88.22189,241.2269,0.16,133.9453,8,10,1416097010,-0.3224487,0.4400787,-0.6345062,-31.03203,1.924324,0.8513184,89.85389,92.9362,15,0.001080444,0.06596863,0.01201964,2.26855,-0.494198,-0.5345352,0.08778297,0.1308324,0.02931912,0.05029557,-0.06537987,0.1119919,172.17.160.76,10.64.29.0,5,unknown,2,2014-11-15 18:16:47.185,134,2014-11-15 18:16:20.024,3
2014-11-15 18:16:51.070,45064,1502.133,40.10473,-88.22189,241.3821,0,185.2734,8,10,1416097011,-0.3448792,0.4458313,-0.6081848,-30.75695,1.304489,0.8513184,90.60317,93.68549,15,-0.06517128,-0.03048734,0.03935833,2.271423,-0.4886971,-0.5339096,0.007678282,0.05565881,0.06000606,0.06568092,-0.05359568,0.1375325,172.17.160.76,10.64.29.0,5,unknown,2,2014-11-15 18:16:47.185,134,2014-11-15 18:16:20.024,3
2014-11-15 18:16:51.103,45065,1502.167,40.10473,-88.22189,241.3821,0,185.2734,8,10,1416097011,-0.347229,0.4478912,-0.6499634,-30.51627,1.063438,0.8178711,90.92983,94.01215,15,-0.07697068,-0.06330227,0.05515194,2.272644,-0.4875098,-0.5344627,-0.004099809,0.008949901,0.06511154,0.05822233,-0.06354749,0.1521062,172.17.160.76,10.64.29.0,5,unknown,2,2014-11-15 18:16:47.185,134,2014-11-15 18:16:20.024,3
2014-11-15 18:16:51.136,45066,1502.2,40.10473,-88.22189,241.3821,0,185.2734,8,10,1416097011,-0.3392639,0.4472198,-0.6838226,-30.82572,0.684639,1.186005,91.17251,94.25482,15,-0.07486013,-0.02811765,0.07125154,2.275387,-0.4855587,-0.5362352,-0.01265042,0.03136413,0.07799925,0.06397607,-0.05413143,0.09448963,172.17.160.76,10.64.29.0,5,unknown,2,2014-11-15 18:16:47.185,134,2014-11-15 18:16:20.024,3
2014-11-15 18:16:51.170,45067,1502.233,40.10473,-88.22189,241.3821,0,185.2734,8,10,1416097011,-0.3773956,0.451004,-0.6687622,-30.99765,0.2369614,1.286346,91.66897,94.75128,15,-0.05659004,0.01834811,0.03427595,2.277832,-0.4828404,-0.5375224,0.0001977989,0.06741382,0.06858752,0.04605361,-0.06199718,0.07462379,172.17.160.76,10.64.29.0,5,unknown,2,2014-11-15 18:16:47.185,134,2014-11-15 18:16:20.024,3
2014-11-15 18:16:51.202,45068,1502.267,40.10473,-88.22189,241.3821,0,185.2734,8,10,1416097011,-0.3670044,0.442627,-0.6870728,-31.41027,0.3747025,1.219421,91.66619,94.7485,15,0.002204831,0.007269364,-0.0222611,2.279206,-0.4795811,-0.5372986,0.0505141,0.08495726,0.002679514,0.0116271,-0.06128607,0.09205828,172.17.160.76,10.64.29.0,5,unknown,2,2014-11-15 18:16:47.185,134,2014-11-15 18:16:20.024,3
2014-11-15 18:16:51.237,45069,1502.3,40.10473,-88.22189,241.3821,0,185.2734,8,10,1416097011,-0.3702393,0.4953461,-0.7251587,-31.30711,-0.0729599,0.8513184,91.6928,94.77512,15,0.05227945,-0.01610094,-0.01832574,2.280393,-0.4767616,-0.5341402,0.1017046,0.0305867,-0.01796677,0.02756565,-0.04364705,0.06211938,172.17.160.76,10.64.29.0,5,unknown,2,2014-11-15 18:16:47.185,134,2014-11-15 18:16:20.024,3
2014-11-15 18:16:51.270,45070,1502.333,40.10473,-88.22189,241.3821,0,185.2734,8,10,1416097011,-0.3552551,0.4891205,-0.7529144,-31.10079,0.06478882,1.052063,91.70624,94.78855,15,0.05529548,-0.01564714,0.04216982,2.28209,-0.4747311,-0.5310604,0.1336024,0.05206926,0.01493253,0.03785049,-0.007897569,0.03483074,172.17.160.76,10.64.29.0,5,unknown,2,2014-11-15 18:16:47.185,134,2014-11-15 18:16:20.024,3
2014-11-15 18:16:51.303,45071,1502.367,40.10473,-88.22189,241.3821,0,185.2734,8,10,1416097011,-0.3713989,0.4723663,-0.741806,-30.82572,-0.2106934,0.9851379,91.72493,94.80724,15,0.04352085,-0.01552144,0.05813681,2.284829,-0.4716898,-0.5292265,0.1217435,0.05028068,0.05849036,0.03697526,-0.01574534,0.01602369,172.17.160.76,10.64.29.0,5,unknown,2,2014-11-15 18:16:47.185,134,2014-11-15 18:16:20.024,3
2014-11-15 18:16:51.337,45072,1502.4,40.10473,-88.22189,241.3821,0,185.2734,8,10,1416097011,-0.391922,0.4784241,-0.7693024,-31.03202,-0.2795639,1.386688,91.74052,94.82284,15,0.006207828,-0.02082379,0.05718713,2.290398,-0.466512,-0.5263828,0.09287989,0.04837074,0.08512539,0.02112052,-0.02754033,0.01822481,172.17.160.76,10.64.29.0,5,unknown,2,2014-11-15 18:16:47.185,134,2014-11-15 18:16:20.024,3
2014-11-15 18:16:51.370,45073,1502.433,40.10473,-88.22189,241.3821,0,185.2734,8,10,1416097011,-0.4241486,0.4878845,-0.8184814,-31.61658,-1.071587,0.68396,91.84773,94.93005,15,-0.006463492,-0.05092976,0.009309346,2.294569,-0.4631744,-0.5239778,0.06525122,0.02581212,0.05113915,-0.03238814,-0.01398477,-0.03129794,172.17.160.76,10.64.29.0,5,unknown,2,2014-11-15 18:16:47.185,134,2014-11-15 18:16:20.024,3
2014-11-15 18:16:51.402,45074,1502.467,40.10473,-88.22189,241.3821,0,185.2734,8,10,1416097011,-0.3763275,0.4990845,-0.8250732,-31.82288,-1.347076,0.5500793,91.93771,95.02003,15,-0.02221236,-0.001490838,-0.05830618,2.295507,-0.4616275,-0.5210189,0.04633803,0.05175533,-0.03251261,-0.0240791,-0.002387492,-0.04988619,172.17.160.76,10.64.29.0,5,unknown,2,2014-11-15 18:16:47.185,134,2014-11-15 18:16:20.024,3
2014-11-15 18:16:51.436,45075,1502.5,40.10473,-88.22189,241.3821,0,185.2734,8,10,1416097011,-0.4175262,0.5345459,-0.8347168,-31.92605,-2.345718,0.1819763,92.1856,95.26791,15,-0.008348743,0.01339464,-0.05615675,2.295116,-0.4604961,-0.5198146,0.05064996,0.07292507,-0.04303215,0.009365863,0.002365282,-0.0475704,172.17.160.76,10.64.29.0,5,unknown,2,2014-11-15 18:16:47.185,134,2014-11-15 18:16:20.024,3
2014-11-15 18:16:51.470,45076,1502.533,40.10473,-88.22189,241.3821,0,185.2734,8,10,1416097011,-0.3849945,0.5157776,-0.8351746,-31.54781,-3.344345,0.2823181,92.4916,95.57391,15,0.1186095,-0.04972175,-0.1047312,2.294808,-0.4578767,-0.5150813,0.1541174,0.02269128,-0.07552929,-0.02839551,0.03255611,-0.08025973,172.17.160.76,10.64.29.0,5,unknown,2,2014-11-15 18:16:47.185,134,2014-11-15 18:16:20.024,3
2014-11-15 18:16:51.502,45077,1502.567,40.10473,-88.22189,241.3821,0,185.2734,8,10,1416097011,-0.3422699,0.532959,-0.8062286,-31.68535,-3.550964,0.4161987,92.65104,95.73335,15,0.09626209,0.02896987,-0.09786425,2.295078,-0.4569714,-0.5106954,0.1946978,0.03740504,-0.09471019,-6.130731e-05,0.02699354,-0.05228466,172.17.160.76,10.64.29.0,5,unknown,2,2014-11-15 18:16:47.185,134,2014-11-15 18:16:20.024,3
2014-11-15 18:16:51.536,45078,1502.6,40.10473,-88.22189,241.3821,0,185.2734,8,10,1416097011,-0.3648224,0.5311584,-0.7876892,-32.02921,-4.377426,0.2153931,99.21427,102.2966,15,-0.007468835,-0.05959782,-0.01302366,2.295787,-0.4520359,-0.5051029,0.1050239,0.07820945,-0.04426393,0.03249064,0.04909202,-0.01282194,172.17.160.76,10.64.29.0,5,unknown,2,2014-11-15 18:16:47.185,134,2014-11-15 18:16:20.024,3
2014-11-15 18:16:51.570,45079,1502.633,40.10473,-88.22189,241.3821,0,185.2734,8,10,1416097011,-0.3693237,0.5252075,-0.8135376,-32.7169,-4.584038,0.1484985,99.68908,102.7714,15,-0.1153633,-0.1718362,0.03243304,2.297209,-0.4508505,-0.5048222,0.002342297,-0.04972166,0.03400061,0.02548227,0.03955678,-0.009241148,172.17.160.76,10.64.29.0,5,unknown,2,2014-11-15 18:16:47.185,134,2014-11-15 18:16:20.024,3
2014-11-15 18:16:51.603,45080,1502.667,40.10473,-88.22189,241.3821,0,185.2734,8,10,1416097011,-0.374527,0.5202026,-0.8560944,-32.88882,-5.307198,0.3158264,100.3309,103.4132,15,-0.1909356,-0.1295101,0.004278901,2.298195,-0.4528113,-0.5071793,-0.07340447,-0.09532651,0.0404152,-0.0007409357,0.03895992,-0.03231907,172.17.160.76,10.64.29.0,5,unknown,2,2014-11-15 18:16:47.185,134,2014-11-15 18:16:20.024,3
2014-11-15 18:16:51.636,45081,1502.7,40.10473,-88.22189,241.3821,0,185.2734,8,10,1416097011,-0.3972473,0.536438,-0.8582153,-33.16389,-5.789291,0.3157959,100.9595,104.0419,15,-0.2036996,-0.09976681,0.00236036,2.297196,-0.4553375,-0.5106727,-0.146853,-0.04233587,0.01761658,0.03041743,0.02692181,-0.07659491,172.17.160.76,10.64.29.0,5,unknown,2,2014-11-15 18:16:47.185,134,2014-11-15 18:16:20.024,3
2014-11-15 18:16:51.670,45082,1502.733,40.10473,-88.22189,241.3821,0,185.2734,8,10,1416097011,-0.4057465,0.5173187,-0.8568573,-33.23268,-6.340263,0.2488403,101.6654,104.7477,15,-0.1544937,-0.1161777,-0.0573533,2.295209,-0.4565802,-0.5165257,-0.1019457,-0.04693602,-0.02715306,-0.01669098,0.03827293,-0.07336676,172.17.160.76,10.64.29.0,5,unknown,2,2014-11-15 18:16:47.185,134,2014-11-15 18:16:20.024,3
2014-11-15 18:16:51.702,45083,1502.767,40.10473,-88.22189,241.3821,0,185.2734,8,10,1416097011,-0.4379272,0.5241394,-0.8835907,-33.33584,-6.443573,-0.05233765,102.9131,105.9954,20,-0.1203613,-0.1300805,-0.06710766,2.292596,-0.4593859,-0.5180833,-0.06457876,-0.05454507,-0.0475013,-0.02474726,0.01831861,-0.07010049,172.17.160.76,10.64.29.0,5,unknown,2,2014-11-15 18:16:47.185,134,2014-11-15 18:16:20.024,3
2014-11-15 18:16:51.736,45084,1502.8,40.10473,-88.22189,241.3821,0,185.2734,8,10,1416097011,-0.4282684,0.534256,-0.8709717,-33.37022,-6.753494,0.1819153,102.9276,106.0099,20,-0.1202111,-0.07935528,-0.103993,2.289898,-0.4621812,-0.5177569,-0.05377109,-0.02616351,-0.0877303,-0.03933039,0.02835266,-0.07640674,172.17.160.76,10.64.29.0,5,unknown,2,2014-11-15 18:16:47.185,134,2014-11-15 18:16:20.024,3
2014-11-15 18:16:51.770,45085,1502.833,40.10473,-88.22189,241.3821,0,185.2734,8,10,1416097011,-0.4500275,0.5715942,-0.8815613,-33.30145,-7.235588,-0.01889038,102.9594,106.0417,20,-0.1342177,-0.1013354,-0.06053552,2.286624,-0.464356,-0.5182773,-0.06130584,-0.01959282,-0.06219202,-0.03496292,0.05648015,-0.08953609,172.17.160.76,10.64.29.0,5,unknown,2,2014-11-15 18:16:47.185,134,2014-11-15 18:16:20.024,3
2014-11-15 18:16:51.803,45086,1502.867,40.10473,-88.22189,241.3821,0,185.2734,8,10,1416097011,-0.4495239,0.5814972,-0.9288788,-33.02637,-7.648819,-0.08581543,103.0418,106.1241,20,-0.1421907,-0.2011922,0.08333004,2.284516,-0.4684162,-0.5211565,-0.0969203,-0.1366617,0.05196479,-0.05095179,0.08575001,-0.1358397,172.17.160.76,10.64.29.0,5,unknown,2,2014-11-15 18:16:47.185,134,2014-11-15 18:16:20.024,3
2014-11-15 18:16:51.836,45087,1502.9,40.10473,-88.22189,241.3821,0,185.2734,8,10,1416097011,-0.4863739,0.5601044,-0.932724,-33.16393,-9.095123,0.1819153,103.1739,106.2562,20,-0.1386346,-0.006202502,0.01428573,2.286101,-0.4715134,-0.5245642,-0.0767342,-0.07049528,0.09151236,-0.09443495,0.06364778,-0.1847146,172.17.160.76,10.64.29.0,5,unknown,2,2014-11-15 18:16:47.185,134,2014-11-15 18:16:20.024,3
2014-11-15 18:16:51.870,45088,1502.933,40.10473,-88.22189,241.3821,0,185.2734,8,10,1416097011,-0.4777985,0.5659943,-0.8931427,-33.30146,-9.301743,0.3157959,103.2519,106.3342,20,-0.1152355,-0.07421272,0.01490145,2.286303,-0.4702977,-0.5270914,-0.06470191,0.07245429,0.0264081,-0.08741782,0.0595699,-0.1521496,172.17.160.76,10.64.29.0,5,unknown,2,2014-11-15 18:16:47.185,134,2014-11-15 18:16:20.024,3
2014-11-15 18:16:51.902,45089,1502.967,40.10473,-88.22189,241.3821,0,185.2734,8,10,1416097011,-0.4700317,0.5969391,-0.914566,-33.71408,-9.164001,0.6503906,103.3843,106.4666,20,-0.1143572,-0.1748807,0.05151992,2.286439,-0.4700895,-0.5288639,-0.04564651,-0.0581677,0.03732511,-0.08862357,0.06780438,-0.1301896,172.17.160.76,10.64.29.0,5,unknown,2,2014-11-15 18:16:47.185,134,2014-11-15 18:16:20.024,3
2014-11-15 18:16:51.936,45090,1503,40.10473,-88.22189,241.3821,0,185.2734,8,10,1416097011,-0.4680481,0.6252899,-0.9764404,-34.16108,-8.78521,0.2153625,105.6766,108.7589,20,-0.1080199,-0.1598317,0.07492804,2.287759,-0.4724515,-0.5309974,-0.04370414,-0.1226363,0.08368345,-0.06428706,0.1038206,-0.1538501,172.17.160.76,10.64.29.0,5,unknown,2,2014-11-15 18:16:47.185,134,2014-11-15 18:16:20.024,3
2014-11-15 18:16:51.970,45091,1503.033,40.10473,-88.22189,241.3821,0,185.2734,8,10,1416097011,-0.5094604,0.6543732,-0.9796906,-34.78001,-9.680542,0.6169128,106.1547,109.237,20,-0.1131537,-0.0304394,0.0427227,2.290507,-0.4742337,-0.534061,-0.04039303,-0.0100746,0.07471034,-0.08683815,0.1207124,-0.2322589,172.17.160.76,10.64.29.0,5,unknown,2,2014-11-15 18:16:47.185,134,2014-11-15 18:16:20.024,3
2014-11-15 18:16:52.003,45092,1503.067,40.10473,-88.22189,241.3821,0,185.2734,8,10,1416097011,-0.5072632,0.7009277,-0.9649048,-34.60808,-9.852715,0.5164795,106.4787,109.561,20,-0.1258906,-0.1519371,-0.006697584,2.291128,-0.4735019,-0.5365464,-0.05410938,-0.04129909,0.01940008,-0.129557,0.1573778,-0.2134922,172.17.160.76,10.64.29.0,5,unknown,2,2014-11-15 18:16:47.185,134,2014-11-15 18:16:20.024,3
2014-11-15 18:16:52.036,45093,1503.1,40.10473,-88.22189,241.3821,0,185.2734,8,10,1416097011,-0.5154877,0.7412262,-1.017395,-34.53931,-9.783844,0.6503296,106.4752,109.5575,20,-0.1493447,-0.1402128,-0.003363573,2.290307,-0.4767766,-0.5384085,-0.07732574,-0.09974708,0.006440496,-0.1127517,0.2248243,-0.251256,172.17.160.76,10.64.29.0,5,unknown,2,2014-11-15 18:16:47.185,134,2014-11-15 18:16:20.024,3
2014-11-15 18:16:52.072,45094,1503.133,40.10474,-88.22189,241.7853,0.61,305.5078,8,10,1416097012,-0.5126648,0.7008362,-1.028931,-34.22985,-9.12957,0.817688,106.4458,109.5282,20,-0.1270844,-0.1175498,0.0444391,2.28969,-0.4788606,-0.5407293,-0.0677795,-0.04427331,0.03641827,-0.1251248,0.1956725,-0.2719664,172.17.160.76,10.64.29.0,5,unknown,2,2014-11-15 18:16:47.185,134,2014-11-15 18:16:20.024,3
2014-11-15 18:16:52.103,45095,1503.167,40.10474,-88.22189,241.7853,0.61,305.5078,8,10,1416097012,-0.5307007,0.6353455,-1.017365,-34.29862,-9.129562,0.6168518,106.4298,109.5121,20,-0.07889588,-0.05636634,-0.0116777,2.291574,-0.4805316,-0.5435966,-0.03373551,-0.06008609,0.05531407,-0.1506303,0.173609,-0.2823623,172.17.160.76,10.64.29.0,5,unknown,2,2014-11-15 18:16:47.185,134,2014-11-15 18:16:20.024,3
2014-11-15 18:16:52.136,45096,1503.2,40.10474,-88.22189,241.7853,0.61,305.5078,8,10,1416097012,-0.5191956,0.5380554,-1.033905,-33.92039,-8.406418,0.7172546,106.3674,109.4497,20,-0.003184608,-0.07561886,-0.02373889,2.291772,-0.480621,-0.5442624,-0.01220838,0.00965119,0.004649492,-0.1351731,0.1175582,-0.2587775,172.17.160.76,10.64.29.0,5,unknown,2,2014-11-15 18:16:47.185,134,2014-11-15 18:16:20.024,3
2014-11-15 18:16:52.171,45097,1503.233,40.10474,-88.22189,241.7853,0.61,305.5078,8,10,1416097012,-0.5312195,0.5036011,-0.9300232,-33.54215,-7.338913,-0.05245972,106.2857,109.368,20,-0.01641067,0.05481638,-0.20027,2.292377,-0.480452,-0.5415515,0.1106073,0.006912997,-0.06906719,-0.1458234,0.01016871,-0.2572397,172.17.160.76,10.64.29.0,5,unknown,2,2014-11-15 18:16:47.185,134,2014-11-15 18:16:20.024,3
2014-11-15 18:16:52.203,45098,1503.267,40.10474,-88.22189,241.7853,0.61,305.5078,8,10,1416097012,-0.5018768,0.5996399,-0.8547821,-33.30146,-7.028984,-0.1528931,106.2413,109.3236,20,-0.08333777,0.05213351,-0.2785832,2.288127,-0.4797596,-0.5376896,0.01628737,0.1301179,-0.2230417,-0.09102092,0.01100988,-0.1400474,172.17.160.76,10.64.29.0,5,unknown,2,2014-11-15 18:16:47.185,134,2014-11-15 18:16:20.024,3
2014-11-15 18:16:52.236,45099,1503.3,40.10474,-88.22189,241.7853,0.61,305.5078,8,10,1416097012,-0.4164734,0.5081177,-0.7954407,-33.2327,-6.822365,-0.4875183,104.4932,107.5755,20,-0.1114789,0.08940232,-0.1286126,2.279546,-0.4799882,-0.5343928,-0.009141957,0.1680643,-0.265206,-0.1044888,0.09032133,-0.09144905,172.17.160.76,10.64.29.0,5,unknown,2,2014-11-15 18:16:47.185,134,2014-11-15 18:16:20.024,3
2014-11-15 18:16:52.270,45100,1503.333,40.10474,-88.22189,241.7853,0.61,305.5078,8,10,1416097012,-0.3673096,0.5147247,-0.828186,-33.40461,-7.201149,-0.1194458,104.6003,107.6826,20,-0.2783456,0.03765763,0.04476134,2.273796,-0.4778575,-0.5360947,-0.1743606,0.03981064,0.04893579,0.08679824,-0.04252076,-0.06470253,172.17.160.76,10.64.29.0,5,unknown,2,2014-11-15 18:16:47.185,134,2014-11-15 18:16:20.024,3
2014-11-15 18:16:52.302,45101,1503.367,40.10474,-88.22189,241.7853,0.61,305.5078,8,10,1416097012,-0.4666901,0.5326691,-0.7975464,-33.439,-6.753487,0.04788208,103.9979,107.0802,20,-0.2334431,0.09267481,0.01622291,2.272743,-0.4760959,-0.5403324,-0.2115876,0.1535273,0.04967395,0.02571093,0.0003036266,-0.06601426,172.17.160.76,10.64.29.0,5,unknown,2,2014-11-15 18:16:47.185,134,2014-11-15 18:16:20.024,3
2014-11-15 18:16:52.336,45102,1503.4,40.10474,-88.22189,241.7853,0.61,305.5078,8,10,1416097012,-0.3913879,0.475296,-0.8656464,-33.12953,-5.754852,0.5498962,102.251,105.3333,20,-0.02042937,-0.2188618,0.002108425,2.272181,-0.4741695,-0.5435892,0.02707497,-0.1113401,0.0261557,-0.0220573,-0.03771893,-0.07502335,172.17.160.76,10.64.29.0,5,unknown,2,2014-11-15 18:16:47.185,134,2014-11-15 18:16:20.024,3
2014-11-15 18:16:52.370,45103,1503.433,40.10474,-88.22189,241.7853,0.61,305.5078,8,10,1416097012,-0.3901062,0.5255127,-0.8162231,-32.82007,-5.100571,0.3825684,101.6047,104.6871,20,-0.0145374,0.0001033306,-0.1283843,2.272547,-0.4773227,-0.5424667,0.03273645,-0.03232712,-0.06367549,0.03605859,-0.03886368,-0.1097255,172.17.160.76,10.64.29.0,5,unknown,2,2014-11-15 18:16:47.185,134,2014-11-15 18:16:20.024,3
2014-11-15 18:16:52.403,45104,1503.467,40.10474,-88.22189,241.7853,0.61,305.5078,8,10,1416097012,-0.4151306,0.5363617,-0.7907715,-32.61375,-4.825081,0.583374,101.1267,104.209,20,0.1549699,-0.07664045,-0.1495914,2.270062,-0.4760423,-0.5384999,0.1375594,0.1040807,-0.1450839,-0.01599763,0.02680882,-0.02711641,172.17.160.76,10.64.29.0,5,unknown,2,2014-11-15 18:16:47.185,134,2014-11-15 18:16:20.024,3
2014-11-15 18:16:52.436,45105,1503.5,40.10474,-88.22189,241.7853,0.61,305.5078,8,10,1416097012,-0.3917542,0.52005,-0.7429962,-32.16676,-4.790649,0.4160461,101.2033,104.2856,20,0.08598176,-0.03585147,-0.2404057,2.268975,-0.4762266,-0.5311238,0.2110215,-0.04050222,-0.1503664,-0.004459491,0.01319645,-0.04479812,172.17.160.76,10.64.29.0,5,unknown,2,2014-11-15 18:16:47.185,134,2014-11-15 18:16:20.024,3
2014-11-15 18:16:52.470,45106,1503.533,40.10474,-88.22189,241.7853,0.61,305.5078,8,10,1416097012,-0.3749542,0.5640259,-0.74263,-31.89168,-4.239685,0.817688,100.2961,103.3784,20,0.005925533,-0.06430203,-0.2137187,2.263076,-0.4779071,-0.5242813,0.1100966,0.07574723,-0.2406584,0.022506,0.02919424,0.04231287,172.17.160.76,10.64.29.0,5,unknown,2,2014-11-15 18:16:47.185,134,2014-11-15 18:16:20.024,3
2014-11-15 18:16:52.503,45107,1503.567,40.10474,-88.22189,241.7853,0.61,305.5078,8,10,1416097012,-0.3739319,0.5072327,-0.7259216,-31.75415,-3.550972,1.152344,99.01267,102.095,20,-0.06041487,-0.04875343,-0.1284698,2.258265,-0.479861,-0.5194651,0.06285226,-0.02771751,-0.1550464,0.001540726,0.08361646,0.01560226,172.17.160.76,10.64.29.0,5,unknown,2,2014-11-15 18:16:47.185,134,2014-11-15 18:16:20.024,3
2014-11-15 18:16:52.536,45108,1503.6,40.10474,-88.22189,241.7853,0.61,305.5078,8,10,1416097012,-0.4116058,0.5097504,-0.6903229,-32.098,-3.068871,1.219269,98.36077,101.4431,20,-0.1019818,-0.09134056,-0.1423377,2.253029,-0.483601,-0.520285,-0.03644209,-0.007108481,-0.1046728,0.03596682,0.01474389,0.05074,172.17.160.76,10.64.29.0,5,unknown,2,2014-11-15 18:16:47.185,134,2014-11-15 18:16:20.024,3
2014-11-15 18:16:52.570,45109,1503.633,40.10474,-88.22189,241.7853,0.61,305.5078,8,10,1416097012,-0.4168091,0.5133972,-0.7523193,-32.16676,-2.931122,1.018463,98.33793,101.4202,20,-0.04223507,-0.05422729,-0.1487349,2.246402,-0.4882436,-0.5211422,0.008442096,0.004266782,-0.1429898,-0.03165514,0.03102912,0.04481998,172.17.160.76,10.64.29.0,5,unknown,2,2014-11-15 18:16:47.185,134,2014-11-15 18:16:20.024,3
2014-11-15 18:16:52.603,45110,1503.667,40.10474,-88.22189,241.7853,0.61,305.5078,8,10,1416097012,-0.4144745,0.5326385,-0.7133789,-31.89169,-2.44902,1.018463,97.8948,100.9771,20,-0.006052034,0.002336125,-0.1135436,2.242929,-0.4911914,-0.5204905,0.02972229,0.04478662,-0.1216289,0.009129702,0.009057166,0.02185443,172.17.160.76,10.64.29.0,5,unknown,2,2014-11-15 18:16:47.185,134,2014-11-15 18:16:20.024,3
2014-11-15 18:16:52.636,45111,1503.7,40.10474,-88.22189,241.7853,0.61,305.5078,8,10,1416097012,-0.4053802,0.5465393,-0.7566528,-31.23837,-2.070236,1.252716,96.26124,99.34355,20,0.08125171,-0.02936188,-0.08431595,2.241004,-0.4913365,-0.5180293,0.1414634,0.02814662,-0.06587407,0.003698124,0.03579108,0.01397603,172.17.160.76,10.64.29.0,5,unknown,2,2014-11-15 18:16:47.185,134,2014-11-15 18:16:20.024,3
2014-11-15 18:16:52.671,45112,1503.733,40.10474,-88.22189,241.7853,0.61,305.5078,8,10,1416097012,-0.4085693,0.4985046,-0.7057648,-31.10083,-1.588135,1.319672,96.2253,99.30761,20,0.08877408,0.01626233,-0.09259571,2.240568,-0.4906085,-0.5148809,0.1532806,0.09388959,-0.08255412,-0.034152,0.02331589,0.04921489,172.17.160.76,10.64.29.0,5,unknown,2,2014-11-15 18:16:47.185,134,2014-11-15 18:16:20.024,3
2014-11-15 18:16:52.703,45113,1503.767,40.10474,-88.22189,241.7853,0.61,305.5078,8,10,1416097012,-0.387085,0.4845123,-0.6790161,-31.34152,-1.347084,1.286194,96.18997,99.27229,20,0.08632956,-0.007441405,0.004944957,2.242571,-0.487355,-0.5108454,0.1476025,0.0191518,0.0104904,0.05753711,0.002601206,0.05967983,172.17.160.76,10.64.29.0,5,unknown,2,2014-11-15 18:16:47.185,134,2014-11-15 18:16:20.024,3
2014-11-15 18:16:52.737,45114,1503.8,40.10474,-88.22189,241.7853,0.61,305.5078,8,10,1416097012,-0.3517609,0.4155273,-0.6618042,-31.61662,-0.4517517,1.286194,96.05296,99.13527,20,0.08324083,0.0316767,-0.02137453,2.244591,-0.4854963,-0.5084085,0.1529302,0.05854502,0.02129265,0.02054096,-0.002275378,0.09356323,172.17.160.76,10.64.29.0,5,unknown,2,2014-11-15 18:16:47.185,134,2014-11-15 18:16:20.024,3
2014-11-15 18:16:52.770,45115,1503.833,40.10474,-88.22189,241.7853,0.61,305.5078,8,10,1416097012,-0.3135223,0.4131165,-0.6399231,-31.37592,-0.2795715,1.118835,95.97424,99.05656,20,0.04151176,0.01610999,0.02540496,2.245974,-0.4838298,-0.5054668,0.1402568,0.1167784,-0.005954788,0.05524141,-0.06868856,0.1127177,172.17.160.76,10.64.29.0,5,unknown,2,2014-11-15 18:16:47.185,134,2014-11-15 18:16:20.024,3
2014-11-15 18:16:52.803,45116,1503.867,40.10474,-88.22189,241.7853,0.61,305.5078,8,10,1416097012,-0.3419647,0.3995514,-0.6540527,-31.23838,0.340271,0.9849854,95.7899,98.87222,20,0.02528512,-0.03758732,0.08993335,2.250377,-0.4788283,-0.5024634,0.1036218,0.02621124,0.09985353,0.1159498,-0.06225912,0.130725,172.17.160.76,10.64.29.0,5,unknown,2,2014-11-15 18:16:47.185,134,2014-11-15 18:16:20.024,3
2014-11-15 18:16:52.836,45117,1503.9,40.10474,-88.22189,241.7853,0.61,305.5078,8,10,1416097012,-0.3092499,0.3439331,-0.6196747,-30.96329,0.6846313,0.3156738,95.58104,98.66335,20,-0.01174987,0.0713919,0.02589551,2.256113,-0.4741337,-0.5011692,0.06540601,0.1024735,0.0653692,0.04458484,-0.09486169,0.1267573,172.17.160.76,10.64.29.0,5,unknown,2,2014-11-15 18:16:47.185,134,2014-11-15 18:16:20.024,3
2014-11-15 18:16:52.870,45118,1503.933,40.10474,-88.22189,241.7853,0.61,305.5078,8,10,1416097012,-0.237915,0.3160706,-0.5683594,-30.9633,1.511093,-0.01901245,95.32951,98.41182,20,-0.05976107,0.08428692,0.04206543,2.258476,-0.4669479,-0.5004373,0.01646084,0.1597501,0.04887025,0.1385826,-0.1539273,0.1771694,172.17.160.76,10.64.29.0,5,unknown,2,2014-11-15 18:16:47.185,134,2014-11-15 18:16:20.024,3
2014-11-15 18:16:52.903,45119,1503.967,40.10474,-88.22189,241.7853,0.61,305.5078,8,10,1416097012,-0.2571869,0.2977753,-0.5444183,-31.23838,1.511093,-0.2867126,95.21093,98.29324,20,-0.08439717,0.02710246,0.06627063,2.259741,-0.4634363,-0.5008653,-0.001729683,0.1301179,0.06364299,0.1541088,-0.169821,0.2167131,172.17.160.76,10.64.29.0,5,unknown,2,2014-11-15 18:16:47.185,134,2014-11-15 18:16:20.024,3
2014-11-15 18:16:52.936,45120,1504,40.10474,-88.22189,241.7853,0.61,305.5078,8,10,1416097012,-0.3110504,0.2913055,-0.5406799,-30.96329,1.855453,-0.3536377,94.93337,98.01569,20,-0.1780725,-0.01045717,0.01122656,2.261807,-0.4595143,-0.5035604,-0.08062929,0.06098381,0.04977498,0.09222548,-0.1871521,0.2386581,172.17.160.76,10.64.29.0,5,unknown,2,2014-11-15 18:16:47.185,134,2014-11-15 18:16:20.024,3
