time,timestamp,recordtime,lat,long,alt,speed,course,verticalAccuracy,horizontalAccuracy,locTimeStamp,accelerationX,accelerationY,accelerationZ,HeadingX,HeadingY,HeadingZ,TrueHeading,MagneticHeading,HeadingAccuracy,RotationX,RotationY,RotationZ,motionYaw,motionRoll,motionPitch,motionRotationRateX,motionRotationRateY,motionRotationRateZ,motionUserAccelerationX,motionUserAccelerationY,motionUserAccelerationZ,en0,pdp_ip0,DeviceOrientation,Activity,Activity Confidence,Activity Start,Steps,Last Step Date,State
2014-11-15 18:16:36.503,44627,1487.567,40.10471,-88.22189,234.5692,0.16,58.71094,8,10,1416096996,-0.4174652,0.7387238,-0.6049042,-30.30998,5.12677,7.043396,81.25291,84.33522,15,0.1027112,-0.06272064,-0.1387075,2.159575,-0.6277686,-0.7596987,0.1712826,-0.02979661,-0.1212048,0.0173542,0.02347041,-0.002197703,172.17.160.76,10.64.29.0,5,walking,0,2014-11-15 18:16:29.870,134,2014-11-15 18:16:20.024,3
2014-11-15 18:16:36.536,44628,1487.6,40.10471,-88.22189,234.5692,0.16,58.71094,8,10,1416096996,-0.4464417,0.7071228,-0.5915833,-30.13805,5.161209,6.608368,81.27673,84.35904,15,0.118643,-0.06471002,-0.119671,2.160884,-0.6256135,-0.7553775,0.1808573,0.02666282,-0.1018309,-0.009821518,0.04633954,-0.003131639,172.17.160.76,10.64.29.0,5,walking,0,2014-11-15 18:16:29.870,134,2014-11-15 18:16:20.024,3
2014-11-15 18:16:36.570,44629,1487.633,40.10471,-88.22189,234.5692,0.16,58.71094,8,10,1416096996,-0.4216614,0.6963501,-0.5737152,-30.10366,4.989021,6.842621,81.28477,84.36709,15,0.09302714,-0.08804251,-0.115452,2.16176,-0.6252344,-0.7493458,0.1669446,-0.02323296,-0.09673421,-0.01509436,0.01201633,0.01666843,172.17.160.76,10.64.29.0,5,walking,0,2014-11-15 18:16:29.870,134,2014-11-15 18:16:20.024,3
2014-11-15 18:16:36.604,44630,1487.667,40.10471,-88.22189,234.5692,0.16,58.71094,8,10,1416096996,-0.3942261,0.6585388,-0.5709686,-30.10366,4.438049,6.641785,81.33042,84.41273,15,0.1293268,-0.02112473,-0.1162971,2.161448,-0.6259847,-0.7429817,0.1648665,0.02133123,-0.1049831,0.004453086,0.02569212,0.02332669,172.17.160.76,10.64.29.0,5,walking,0,2014-11-15 18:16:29.870,134,2014-11-15 18:16:20.024,3
2014-11-15 18:16:36.637,44631,1487.7,40.10471,-88.22189,234.5692,0.16,58.71094,8,10,1416096996,-0.4017639,0.6062622,-0.5268402,-29.89735,4.50692,6.507965,81.40097,84.48328,15,0.1665767,-0.03589195,-0.09953059,2.162757,-0.6237952,-0.7376904,0.2085657,0.04793838,-0.09651214,0.04191227,-0.03499202,0.04627105,172.17.160.76,10.64.29.0,5,walking,0,2014-11-15 18:16:29.870,134,2014-11-15 18:16:20.024,3
2014-11-15 18:16:36.670,44632,1487.733,40.10471,-88.22189,234.5692,0.16,58.71094,8,10,1416096996,-0.3665924,0.5812683,-0.5376129,-29.93173,4.6791,6.340637,81.43349,84.51581,15,0.1697422,-0.06242663,-0.09543625,2.164339,-0.6219388,-0.7330633,0.2287688,0.02995965,-0.08394475,0.03119142,-0.062887,0.07713745,172.17.160.76,10.64.29.0,5,walking,0,2014-11-15 18:16:29.870,134,2014-11-15 18:16:20.024,3
2014-11-15 18:16:36.702,44633,1487.767,40.10471,-88.22189,234.5692,0.16,58.71094,8,10,1416096996,-0.3980713,0.568222,-0.5229492,-29.69105,4.782417,5.77179,81.52016,84.60248,15,0.1418559,-0.0907355,-0.04665272,2.168269,-0.6190197,-0.723888,0.2233301,0.005745659,-0.05433052,0.06077229,-0.07581586,0.0762325,172.17.160.76,10.64.29.0,5,walking,0,2014-11-15 18:16:29.870,134,2014-11-15 18:16:20.024,3
2014-11-15 18:16:36.736,44634,1487.8,40.10471,-88.22189,234.5692,0.16,58.71094,8,10,1416096996,-0.368927,0.5392914,-0.5316925,-30.2412,4.300316,5.437134,81.6534,84.73572,15,0.09281383,-0.07792782,-0.04215571,2.171965,-0.6171888,-0.7182461,0.1954794,-0.04288086,-0.02263793,0.03770106,-0.089843,0.09109707,172.17.160.76,10.64.29.0,5,walking,0,2014-11-15 18:16:29.870,134,2014-11-15 18:16:20.024,3
2014-11-15 18:16:36.770,44635,1487.833,40.10471,-88.22189,234.5692,0.16,58.71094,8,10,1416096996,-0.3292542,0.5137177,-0.5037384,-30.55066,4.197006,5.269836,81.74309,84.8254,15,-0.01383805,-0.006432599,-0.008473912,2.175686,-0.6136297,-0.7120958,0.06977049,0.08578011,-0.01830537,0.09540665,-0.1493323,0.1012362,172.17.160.76,10.64.29.0,5,walking,0,2014-11-15 18:16:29.870,134,2014-11-15 18:16:20.024,3
2014-11-15 18:16:36.803,44636,1487.867,40.10471,-88.22189,234.5692,0.16,58.71094,8,10,1416096996,-0.3713531,0.5054169,-0.5163116,-30.4819,4.197014,5.002106,83.81966,86.90198,15,-0.01622025,-0.1601732,0.03530766,2.177553,-0.6119257,-0.7113193,0.04814045,-0.05609486,0.04790179,0.08954632,-0.1335771,0.1215735,172.17.160.76,10.64.29.0,5,walking,0,2014-11-15 18:16:29.870,134,2014-11-15 18:16:20.024,3
2014-11-15 18:16:36.836,44637,1487.9,40.10471,-88.22189,234.5692,0.16,58.71094,8,10,1416096996,-0.3880615,0.5101166,-0.5348206,-30.9289,4.506935,5.437103,83.78198,86.8643,15,-0.05864228,-0.08831042,-0.01935213,2.179824,-0.6131371,-0.7110302,0.0279376,-0.07537974,0.02558467,0.0598729,-0.1490899,0.08608975,172.17.160.76,10.64.29.0,5,walking,0,2014-11-15 18:16:29.870,134,2014-11-15 18:16:20.024,3
2014-11-15 18:16:36.870,44638,1487.933,40.10471,-88.22189,234.5692,0.16,58.71094,8,10,1416096996,-0.3488159,0.5419769,-0.5282898,-30.75698,4.403625,5.671356,83.56251,86.64482,15,-0.09795319,-0.05136332,-0.05403927,2.178008,-0.6134155,-0.7111794,-0.04311753,0.04843152,-0.04245364,0.04614961,-0.1253382,0.08358467,172.17.160.76,10.64.29.0,5,walking,0,2014-11-15 18:16:29.870,134,2014-11-15 18:16:20.024,3
2014-11-15 18:16:36.903,44639,1487.967,40.10471,-88.22189,234.5692,0.16,58.71094,8,10,1416096996,-0.3547974,0.564621,-0.5378113,-30.34435,3.990395,5.872101,83.71046,86.79277,15,-0.05124534,-0.1328635,-0.008999621,2.176869,-0.6141292,-0.7113347,-0.01767687,-0.03319409,-0.01538028,0.08768615,-0.1108684,0.09078926,172.17.160.76,10.64.29.0,5,walking,0,2014-11-15 18:16:29.870,134,2014-11-15 18:16:20.024,3
2014-11-15 18:16:36.937,44640,1488,40.10471,-88.22189,234.5692,0.16,58.71094,8,10,1416096996,-0.3590698,0.5322418,-0.5304108,-29.96612,3.19838,5.570923,83.91274,86.99506,15,-0.06505304,-0.06059171,-0.007505853,2.177191,-0.6158953,-0.7110969,0.01536334,-0.01722424,-0.00905115,0.08784614,-0.1030742,0.08237732,172.17.160.76,10.64.29.0,5,walking,0,2014-11-15 18:16:29.870,134,2014-11-15 18:16:20.024,3
2014-11-15 18:16:36.970,44641,1488.033,40.10471,-88.22189,234.5692,0.16,58.71094,8,10,1416096996,-0.3658295,0.5394287,-0.5289612,-29.82858,2.578537,5.370117,83.97665,87.05896,15,-0.06945311,-0.11348,0.02407657,2.177184,-0.6158027,-0.7110364,-0.002794338,0.005227006,0.00811872,0.0785801,-0.1203776,0.08809584,172.17.160.76,10.64.29.0,5,walking,0,2014-11-15 18:16:29.870,134,2014-11-15 18:16:20.024,3
2014-11-15 18:16:37.003,44642,1488.067,40.10471,-88.22189,234.5692,0.16,58.71094,8,10,1416096996,-0.3779297,0.5631714,-0.5680847,-30.4475,2.096443,4.767761,84.14802,87.23033,15,-0.02462572,-0.09872977,0.01018712,2.178324,-0.6168551,-0.7119865,-0.003983934,-0.0647289,0.03110727,0.0788414,-0.1066776,0.08084226,172.17.160.76,10.64.29.0,5,walking,0,2014-11-15 18:16:29.870,134,2014-11-15 18:16:20.024,3
2014-11-15 18:16:37.037,44643,1488.1,40.10471,-88.22189,234.5692,0.16,58.71094,8,10,1416096996,-0.4128571,0.5498199,-0.56427,-30.61943,1.648788,4.801239,84.36932,87.45163,15,0.04501674,0.01108301,-0.07759839,2.180779,-0.6154185,-0.7098499,0.1018593,0.06221054,-0.03761709,0.040688,-0.09013544,0.03716851,172.17.160.76,10.64.29.0,5,walking,0,2014-11-15 18:16:29.870,134,2014-11-15 18:16:20.024,3
2014-11-15 18:16:37.070,44644,1488.133,40.10471,-88.22189,233.529,0.19,54.84375,8,10,1416096997,-0.4143524,0.5854187,-0.5695648,-30.82574,1.442177,4.868164,84.48489,87.56721,15,0.04394748,-0.07833476,-0.09929489,2.180824,-0.6133453,-0.7058826,0.1105369,0.03947587,-0.09296645,0.0166112,-0.1008847,0.06125672,172.17.160.76,10.64.29.0,5,walking,0,2014-11-15 18:16:29.870,134,2014-11-15 18:16:20.024,3
2014-11-15 18:16:37.103,44645,1488.167,40.10471,-88.22189,233.529,0.19,54.84375,8,10,1416096997,-0.353241,0.6305847,-0.6057434,-31.16959,0.8912048,5.671356,87.22468,90.30699,15,0.02542493,-0.1880453,0.005283445,2.18094,-0.6144282,-0.7023507,0.09105579,-0.08434394,-0.02773374,0.04994446,-0.03082527,0.05378484,172.17.160.76,10.64.29.0,5,walking,0,2014-11-15 18:16:29.870,134,2014-11-15 18:16:20.024,3
2014-11-15 18:16:37.136,44646,1488.2,40.10471,-88.22189,233.529,0.19,54.84375,8,10,1416096997,-0.504303,0.647522,-0.6329498,-31.13521,0.5124054,5.704773,88.40189,91.4842,15,-0.01738778,-0.1375624,0.07470593,2.184365,-0.6160251,-0.7015122,0.05438581,-0.1237224,0.1027584,0.069304,-0.002841152,-0.009892284,172.17.160.76,10.64.29.0,5,walking,0,2014-11-15 18:16:29.870,134,2014-11-15 18:16:20.024,3
2014-11-15 18:16:37.169,44647,1488.233,40.10471,-88.22189,233.529,0.19,54.84375,8,10,1416096997,-0.4128418,0.6037598,-0.6174469,-31.82291,0.2369156,5.637848,89.07362,92.15593,15,-0.06917907,0.05936452,-0.02278095,2.1876,-0.6144344,-0.7019935,0.01953372,0.07455385,0.04448994,-0.06411544,0.001780827,-0.009048152,172.17.160.76,10.64.29.0,5,walking,0,2014-11-15 18:16:29.870,134,2014-11-15 18:16:20.024,3
2014-11-15 18:16:37.203,44648,1488.267,40.10471,-88.22189,233.529,0.19,54.84375,8,10,1416096997,-0.4282227,0.6303406,-0.6073761,-31.99483,-0.1418686,5.47052,89.14062,92.22293,15,-0.09423063,-0.1586003,0.09823549,2.187915,-0.6110395,-0.7037308,-0.04782538,-0.01647732,0.08672193,0.04629413,-0.03392275,-0.002724581,172.17.160.76,10.64.29.0,5,walking,0,2014-11-15 18:16:29.870,134,2014-11-15 18:16:20.024,3
2014-11-15 18:16:37.236,44649,1488.3,40.10471,-88.22189,233.529,0.19,54.84375,8,10,1416096997,-0.4769135,0.6388397,-0.6536713,-32.20114,-0.3484802,5.20285,89.20316,92.28547,15,0.005218464,-0.08914932,0.01437175,2.190744,-0.6116499,-0.7064179,-0.002120843,-0.08642457,0.1137809,-0.01392563,-0.009601974,-0.00280002,172.17.160.76,10.64.29.0,5,walking,0,2014-11-15 18:16:29.870,134,2014-11-15 18:16:20.024,3
2014-11-15 18:16:37.270,44650,1488.333,40.10471,-88.22189,233.529,0.19,54.84375,8,10,1416096997,-0.4954529,0.6383057,-0.6741486,-32.37306,-1.278236,4.901672,89.38164,92.46395,15,0.05355404,0.03980094,-0.0732332,2.192866,-0.6114069,-0.7065823,0.06747343,-0.02333455,0.02999538,-0.04032228,-0.01039839,-0.03087273,172.17.160.76,10.64.29.0,5,walking,0,2014-11-15 18:16:29.870,134,2014-11-15 18:16:20.024,3
2014-11-15 18:16:37.302,44651,1488.367,40.10471,-88.22189,233.529,0.19,54.84375,8,10,1416096997,-0.4235992,0.7258453,-0.6491089,-32.30429,-1.829216,4.299347,89.60921,92.69153,20,0.1035072,-0.02159131,-0.03871464,2.193507,-0.6064059,-0.7015282,0.1213458,0.1891985,-0.104957,-0.03355167,-0.005172733,-0.01430536,172.17.160.76,10.64.29.0,5,walking,0,2014-11-15 18:16:29.870,134,2014-11-15 18:16:20.024,3
2014-11-15 18:16:37.337,44652,1488.4,40.10471,-88.22189,233.529,0.19,54.84375,8,10,1416096997,-0.4636993,0.7210999,-0.6716156,-32.23553,-2.173569,4.299347,94.22971,97.31202,20,0.1694593,-0.05959036,-0.0009483517,2.20081,-0.6002907,-0.6949782,0.2273314,-0.05310138,0.03773696,-0.03993281,0.09127498,-0.0242325,172.17.160.76,10.64.29.0,5,walking,0,2014-11-15 18:16:29.870,134,2014-11-15 18:16:20.024,3
2014-11-15 18:16:37.370,44653,1488.433,40.10471,-88.22189,233.529,0.19,54.84375,8,10,1416096997,-0.4278564,0.736908,-0.6780548,-32.33868,-2.208008,4.2659,94.4988,97.58112,20,0.0799204,0.1160872,0.04064836,2.206126,-0.5951734,-0.689992,0.1784711,0.1381031,0.02725042,-0.02564983,0.08350073,-0.04190653,172.17.160.76,10.64.29.0,5,walking,0,2014-11-15 18:16:37.291,134,2014-11-15 18:16:20.024,3
2014-11-15 18:16:37.403,44654,1488.467,40.10471,-88.22189,233.529,0.19,54.84375,8,10,1416096997,-0.4255829,0.7193604,-0.7108459,-32.85445,-2.586792,4.433258,94.75398,97.8363,20,0.007930893,0.03981533,0.2082304,2.212,-0.5861895,-0.688688,0.08207206,0.153123,0.1816053,0.01940812,0.08223337,-0.04873983,172.17.160.76,10.64.29.0,5,walking,0,2014-11-15 18:16:37.291,134,2014-11-15 18:16:20.024,3
2014-11-15 18:16:37.436,44655,1488.5,40.10471,-88.22189,233.529,0.19,54.84375,8,10,1416096997,-0.523468,0.6421204,-0.7746735,-33.1983,-2.793404,4.165527,95.12715,98.20947,20,0.0112689,0.01284922,0.1550018,2.220699,-0.5777788,-0.6906079,0.07339697,0.08642263,0.2131309,-0.04677282,0.07824984,-0.06482457,172.17.160.76,10.64.29.0,5,walking,0,2014-11-15 18:16:37.291,134,2014-11-15 18:16:20.024,3
2014-11-15 18:16:37.470,44656,1488.533,40.10471,-88.22189,233.529,0.19,54.84375,8,10,1416096997,-0.4844971,0.6552734,-0.7918549,-33.50777,-3.309937,3.864319,95.15099,98.23331,20,0.08013611,0.1006435,-0.03479899,2.226923,-0.5712568,-0.6910269,0.08234055,0.1066713,0.08051869,-0.1068169,0.004791554,-0.1264345,172.17.160.76,10.64.29.0,5,walking,0,2014-11-15 18:16:37.291,134,2014-11-15 18:16:20.024,3
2014-11-15 18:16:37.503,44657,1488.567,40.10471,-88.22189,233.529,0.19,54.84375,8,10,1416096997,-0.4275055,0.667984,-0.8353882,-34.333,-4.205269,3.195038,95.23907,98.32138,20,0.2774721,0.03957724,-0.0889336,2.230762,-0.5625035,-0.6850924,0.2618749,0.1587206,-0.0515034,-0.01780001,0.02945633,-0.1644089,172.17.160.76,10.64.29.0,5,walking,0,2014-11-15 18:16:37.291,134,2014-11-15 18:16:20.024,3
2014-11-15 18:16:37.536,44658,1488.6,40.10471,-88.22189,233.529,0.19,54.84375,8,10,1416096997,-0.4357452,0.6814423,-0.7914124,-34.43616,-4.85955,2.76001,98.36237,101.4447,20,0.2742931,0.06933966,-0.08770349,2.23524,-0.5562635,-0.6756627,0.3493181,0.1170913,-0.07115683,-0.02265426,0.04185231,-0.1528549,172.17.160.76,10.64.29.0,5,walking,0,2014-11-15 18:16:37.291,134,2014-11-15 18:16:20.024,3
2014-11-15 18:16:37.570,44659,1488.633,40.10471,-88.22189,233.529,0.19,54.84375,8,10,1416096997,-0.4241638,0.7074127,-0.7585907,-34.91754,-5.617142,2.291534,100.5664,103.6487,20,0.2060466,0.08325947,-0.07782129,2.238357,-0.551778,-0.6691001,0.3365418,0.1351536,-0.07207542,-0.02457146,0.06116187,-0.123439,172.17.160.76,10.64.29.0,5,walking,0,2014-11-15 18:16:37.291,134,2014-11-15 18:16:20.024,3
2014-11-15 18:16:37.602,44660,1488.667,40.10471,-88.22189,233.529,0.19,54.84375,8,10,1416096997,-0.4909973,0.7360535,-0.7463684,-34.47055,-6.202545,2.124207,101.3618,104.4441,20,-0.06076961,-0.1202593,-0.02906574,2.24211,-0.5442126,-0.6592808,0.1488191,0.07267322,-0.05577939,-0.01495192,0.1094058,-0.07555729,172.17.160.76,10.64.29.0,5,walking,0,2014-11-15 18:16:37.291,134,2014-11-15 18:16:20.024,3
2014-11-15 18:16:37.636,44661,1488.7,40.10471,-88.22189,233.529,0.19,54.84375,8,10,1416096997,-0.4566803,0.732605,-0.8196564,-34.36739,-6.305855,2.425385,101.2153,104.2976,20,-0.2591645,-0.1560889,-0.001974468,2.241102,-0.5471083,-0.6594958,-0.1414646,-0.110573,0.002724006,-0.07657105,0.1130658,-0.08914097,172.17.160.76,10.64.29.0,5,walking,0,2014-11-15 18:16:37.291,134,2014-11-15 18:16:20.024,3
2014-11-15 18:16:37.670,44662,1488.733,40.10471,-88.22189,233.529,0.19,54.84375,8,10,1416096997,-0.5177307,0.7876129,-0.8959351,-34.26424,-6.546913,2.726562,101.1804,104.2627,20,-0.2559974,-0.07403854,0.02922873,2.237046,-0.552596,-0.6678436,-0.2215524,-0.03993847,0.0649617,-0.07775454,0.1751393,-0.2208148,172.17.160.76,10.64.29.0,5,walking,0,2014-11-15 18:16:37.291,134,2014-11-15 18:16:20.024,3
2014-11-15 18:16:37.703,44663,1488.767,40.10471,-88.22189,233.529,0.19,54.84375,8,10,1416096997,-0.5524445,0.7723694,-0.9015656,-34.67685,-6.478035,2.726562,101.156,104.2383,20,-0.1203845,0.01795663,-0.02174577,2.234906,-0.5529741,-0.6725911,-0.1115246,0.08294046,0.02167592,-0.1069896,0.1564498,-0.2579345,172.17.160.76,10.64.29.0,5,walking,0,2014-11-15 18:16:37.291,134,2014-11-15 18:16:20.024,3
2014-11-15 18:16:37.736,44664,1488.8,40.10471,-88.22189,233.529,0.19,54.84375,8,10,1416096997,-0.5763397,0.8252869,-0.9312897,-34.74562,-6.753517,2.391937,101.6603,104.7426,20,0.05130047,-0.08338784,-0.06432013,2.234276,-0.5512322,-0.6728339,0.05594047,0.03684501,-0.02165327,-0.1502669,0.1601204,-0.2503754,172.17.160.76,10.64.29.0,5,walking,0,2014-11-15 18:16:37.291,134,2014-11-15 18:16:20.024,3
2014-11-15 18:16:37.770,44665,1488.833,40.10471,-88.22189,233.529,0.19,54.84375,8,10,1416096997,-0.5883636,0.8525848,-0.9427795,-34.91755,-6.994568,1.756134,102.5272,105.6095,20,0.2040392,-0.05757808,-0.1549821,2.235414,-0.5513204,-0.668169,0.2052801,-0.03372117,-0.07035086,-0.1651693,0.2057371,-0.2626366,172.17.160.76,10.64.29.0,5,walking,0,2014-11-15 18:16:37.291,134,2014-11-15 18:16:20.024,3
2014-11-15 18:16:37.804,44666,1488.867,40.10471,-88.22189,233.529,0.19,54.84375,8,10,1416096997,-0.6340332,0.7704926,-1.004318,-34.74562,-7.235611,1.521881,103.0905,106.1729,20,0.3191484,-0.1512564,-0.1707672,2.237025,-0.5500436,-0.6565068,0.2929244,0.01783065,-0.1330352,-0.2032748,0.2289867,-0.3083816,172.17.160.76,10.64.29.0,5,walking,0,2014-11-15 18:16:37.291,134,2014-11-15 18:16:20.024,3
2014-11-15 18:16:37.836,44667,1488.9,40.10471,-88.22189,233.529,0.19,54.84375,8,10,1416096997,-0.6925354,0.6817017,-1.106018,-34.95193,-7.235611,1.722687,102.9313,106.0136,20,0.5112699,-0.211545,-0.2630916,2.238279,-0.5499961,-0.6491832,0.3813938,-0.08544594,-0.15514,-0.2176748,0.1659566,-0.3252144,172.17.160.76,10.64.29.0,5,walking,0,2014-11-15 18:16:37.291,134,2014-11-15 18:16:20.024,3
2014-11-15 18:16:37.870,44668,1488.933,40.10471,-88.22189,233.529,0.19,54.84375,8,10,1416096997,-0.6112823,0.6801147,-0.9537506,-35.19262,-6.994553,2.023865,102.3735,105.4558,20,0.6939068,0.291598,-0.6018616,2.241443,-0.5510892,-0.6235149,0.6958098,0.1120568,-0.4355087,-0.2679058,0.07667598,-0.4170907,172.17.160.76,10.64.29.0,5,walking,0,2014-11-15 18:16:37.291,134,2014-11-15 18:16:20.024,3
2014-11-15 18:16:37.903,44669,1488.967,40.10471,-88.22189,233.529,0.19,54.84375,8,10,1416096997,-0.3681183,0.6918335,-0.7475739,-34.91754,-7.201172,1.823059,102.8902,105.9725,20,0.5118715,0.05629443,-0.3943686,2.235189,-0.5388932,-0.579085,0.620449,0.2647235,-0.4821513,-0.01771674,0.1677533,-0.08138147,172.17.160.76,10.64.29.0,5,walking,0,2014-11-15 18:16:37.291,134,2014-11-15 18:16:20.024,3
2014-11-15 18:16:37.936,44670,1489,40.10471,-88.22189,233.529,0.19,54.84375,8,10,1416096997,-0.5066986,0.5664062,-0.7527161,-34.43615,-7.338921,1.622253,103.3484,106.4307,20,0.2794676,-0.2911724,-0.1278347,2.235524,-0.53844,-0.5608476,0.4422686,-0.1611877,-0.1875735,0.03842618,0.1309529,-0.005157303,172.17.160.76,10.64.29.0,5,walking,0,2014-11-15 18:16:37.291,134,2014-11-15 18:16:20.024,3
2014-11-15 18:16:37.969,44671,1489.033,40.10471,-88.22189,233.529,0.19,54.84375,8,10,1416096997,-0.4841461,0.4636841,-0.7714844,-33.85162,-7.373352,1.1203,104.1219,107.2042,20,-0.006351639,-0.1150853,-0.04410301,2.237865,-0.5430478,-0.5529706,0.135875,-0.1322731,-0.03554363,-0.07259328,0.001500729,-0.02030972,172.17.160.76,10.64.29.0,5,walking,0,2014-11-15 18:16:37.291,134,2014-11-15 18:16:20.024,3
2014-11-15 18:16:38.003,44672,1489.067,40.10471,-88.22189,233.529,0.19,54.84375,8,10,1416096997,-0.4906769,0.5002747,-0.793396,-33.78284,-7.235611,1.521881,103.8114,106.8937,20,-0.08080909,0.009092565,-0.06758437,2.237627,-0.5430511,-0.5519255,-0.01217398,0.08038475,-0.02537763,-0.05654517,-0.04602584,-0.06841039,172.17.160.76,10.64.29.0,5,walking,0,2014-11-15 18:16:37.291,134,2014-11-15 18:16:20.024,3
2014-11-15 18:16:38.039,44673,1489.1,40.10471,-88.22189,233.529,0.19,54.84375,8,10,1416096997,-0.4481354,0.4621124,-0.8425293,-33.886,-6.650208,1.622253,103.1053,106.1876,20,0.0491236,-0.2365771,-0.08847128,2.23596,-0.5433861,-0.550778,0.05711577,-0.08678227,-0.06685381,-0.04779619,-0.02740917,-0.06602913,172.17.160.76,10.64.29.0,5,walking,0,2014-11-15 18:16:37.291,134,2014-11-15 18:16:20.024,3
2014-11-15 18:16:38.070,44674,1489.133,40.10471,-88.22189,232.6035,0,110.3906,8,10,1416096998,-0.4315948,0.5497894,-0.7664795,-33.74846,-6.099236,2.023865,102.1485,105.2308,20,0.01838114,-0.05281954,-0.0990648,2.235298,-0.5489047,-0.5460632,0.07211919,-0.03695192,-0.08044698,0.03335615,0.005254932,-0.08143509,172.17.160.76,10.64.29.0,5,walking,0,2014-11-15 18:16:37.291,134,2014-11-15 18:16:20.024,3
2014-11-15 18:16:38.103,44675,1489.167,40.10471,-88.22189,232.6035,0,110.3906,8,10,1416096998,-0.4533691,0.5005951,-0.7750854,-33.50777,-4.825104,2.525787,100.2335,103.3158,20,0.0492778,-0.116663,-0.10907,2.234534,-0.5491422,-0.5439655,0.08069459,0.01296185,-0.08340076,0.01502349,0.03225631,-0.0366223,172.17.160.76,10.64.29.0,5,walking,0,2014-11-15 18:16:37.291,134,2014-11-15 18:16:20.024,3
2014-11-15 18:16:38.136,44676,1489.2,40.10471,-88.22189,232.6035,0,110.3906,8,10,1416096998,-0.4248505,0.5432281,-0.7370911,-33.26707,-4.85955,2.826996,99.97027,103.0526,20,-0.1274378,-0.02990464,-0.1695174,2.233193,-0.5516336,-0.5388935,0.05507502,-0.06146391,-0.09112725,-0.002022811,-0.006106506,-0.0443154,172.17.160.76,10.64.29.0,5,walking,0,2014-11-15 18:16:37.291,134,2014-11-15 18:16:20.024,3
2014-11-15 18:16:38.170,44677,1489.233,40.10471,-88.22189,232.6035,0,110.3906,8,10,1416096998,-0.3994446,0.5595703,-0.6890564,-32.9576,-4.6185,2.458893,100.036,103.1183,20,-0.1894749,-0.09004254,-0.1165277,2.228244,-0.553701,-0.537868,-0.1023951,0.05814518,-0.1620886,-0.005057831,0.06232457,0.002441554,172.17.160.76,10.64.29.0,5,walking,0,2014-11-15 18:16:37.291,134,2014-11-15 18:16:20.024,3
2014-11-15 18:16:38.202,44678,1489.267,40.10471,-88.22189,232.6035,0,110.3906,8,10,1416096998,-0.4199066,0.5042572,-0.7758789,-32.78568,-4.101952,2.35849,99.58092,102.6632,20,-0.2165555,-0.2390651,-0.01212431,2.224254,-0.5553746,-0.5385787,-0.1271625,-0.02426234,-0.1008639,0.01434355,0.07270067,0.04989814,172.17.160.76,10.64.29.0,5,walking,0,2014-11-15 18:16:37.291,134,2014-11-15 18:16:20.024,3
2014-11-15 18:16:38.236,44679,1489.3,40.10471,-88.22189,232.6035,0,110.3906,8,10,1416096998,-0.4776154,0.5033722,-0.7469025,-32.54498,-3.585419,2.525787,99.09602,102.1783,20,-0.3248497,-0.06126868,-0.1137463,2.216892,-0.5674266,-0.5485206,-0.2520844,-0.05353014,-0.04429189,-0.02969563,-0.03262534,-0.04362481,172.17.160.76,10.64.29.0,5,walking,0,2014-11-15 18:16:37.291,134,2014-11-15 18:16:20.024,3
2014-11-15 18:16:38.272,44680,1489.333,40.10471,-88.22189,232.6035,0,110.3906,8,10,1416096998,-0.4333344,0.5427704,-0.7102203,-32.16676,-3.137749,3.228546,97.82484,100.9072,20,-0.2682581,-0.0774916,-0.148011,2.208535,-0.5715921,-0.5528737,-0.231466,0.008361861,-0.14913,0.0005688692,-0.01271433,-0.004625811,172.17.160.76,10.64.29.0,5,walking,0,2014-11-15 18:16:37.291,134,2014-11-15 18:16:20.024,3
2014-11-15 18:16:38.303,44681,1489.367,40.10471,-88.22189,232.6035,0,110.3906,8,10,1416096998,-0.4466705,0.5633087,-0.7077789,-32.47621,-3.309929,3.730499,97.64654,100.7289,20,-0.1864021,-0.1291207,-0.08490051,2.201623,-0.5763742,-0.5556478,-0.1517617,-0.06876901,-0.08614579,0.03321994,0.04258985,0.003384359,172.17.160.76,10.64.29.0,5,walking,0,2014-11-15 18:16:37.291,134,2014-11-15 18:16:20.024,3
2014-11-15 18:16:38.336,44682,1489.4,40.10471,-88.22189,232.6035,0,110.3906,8,10,1416096998,-0.4502869,0.5230865,-0.6703033,-32.5106,-3.068878,4.098633,97.0441,100.1264,20,-0.1224031,-0.0866566,-0.08597802,2.197358,-0.5804379,-0.5572578,-0.0867426,-0.04854855,-0.07779101,0.01875292,0.0344479,0.001930338,172.17.160.76,10.64.29.0,5,walking,0,2014-11-15 18:16:37.291,134,2014-11-15 18:16:20.024,3
2014-11-15 18:16:38.369,44683,1489.433,40.10471,-88.22189,232.6035,0,110.3906,8,10,1416096998,-0.4478149,0.4958038,-0.6998749,-32.57938,-2.655663,4.299377,95.38179,98.4641,20,-0.042597,0.03078082,-0.007108776,2.194545,-0.5815796,-0.5572397,-0.01849261,0.06207924,-0.05729597,0.02356593,-0.01796593,0.03221402,172.17.160.76,10.64.29.0,5,walking,0,2014-11-15 18:16:37.291,134,2014-11-15 18:16:20.024,3
2014-11-15 18:16:38.403,44684,1489.467,40.10471,-88.22189,232.6035,0,110.3906,8,10,1416096998,-0.3705139,0.4753418,-0.6623383,-32.30429,-2.380173,3.228516,95.95736,99.03967,20,0.122487,0.05344432,0.04971243,2.195553,-0.5770646,-0.5561734,0.09961941,0.11793,0.02959726,0.05953076,-0.03032059,0.07122197,172.17.160.76,10.64.29.0,5,walking,0,2014-11-15 18:16:37.291,134,2014-11-15 18:16:20.024,3
2014-11-15 18:16:38.436,44685,1489.5,40.10471,-88.22189,232.6035,0,110.3906,8,10,1416096998,-0.3867798,0.4337463,-0.6399994,-31.89167,-1.829193,3.02771,95.51657,98.59888,20,0.1545225,0.1161058,0.04779948,2.198645,-0.573041,-0.5541257,0.1847964,0.1192214,0.06537543,0.09054302,-0.05085826,0.05218257,172.17.160.76,10.64.29.0,5,walking,0,2014-11-15 18:16:37.291,134,2014-11-15 18:16:20.024,3
2014-11-15 18:16:38.470,44686,1489.533,40.10471,-88.22189,232.6035,0,110.3906,8,10,1416096998,-0.335556,0.4123535,-0.5926361,-31.58221,-1.106049,2.659637,94.70789,97.79021,20,0.149316,0.1956438,0.02700818,2.206523,-0.5614219,-0.5482765,0.2169056,0.2423787,0.05422732,0.05448294,-0.08899669,0.1002302,172.17.160.76,10.64.29.0,5,walking,0,2014-11-15 18:16:37.291,134,2014-11-15 18:16:20.024,3
2014-11-15 18:16:38.503,44687,1489.567,40.10471,-88.22189,232.6035,0,110.3906,8,10,1416096998,-0.3041382,0.4080963,-0.5855103,-31.68536,-0.8649979,2.693146,94.16622,97.24854,20,0.05651734,0.1191669,0.02482998,2.213197,-0.5476163,-0.5429817,0.1497311,0.2264727,0.05439498,0.1349932,-0.1047649,0.1460112,172.17.160.76,10.64.29.0,5,walking,0,2014-11-15 18:16:37.291,134,2014-11-15 18:16:20.024,3
2014-11-15 18:16:38.537,44688,1489.6,40.10471,-88.22189,232.6035,0,110.3906,8,10,1416096998,-0.3134766,0.3525848,-0.5492096,-31.92606,-0.1418533,2.324951,93.28498,96.36729,20,-0.1055922,0.1311282,0.05097556,2.217151,-0.5386477,-0.5413999,0.007890737,0.1723824,0.05888708,0.1291587,-0.1338512,0.1606596,172.17.160.76,10.64.29.0,5,walking,0,2014-11-15 18:16:37.291,134,2014-11-15 18:16:20.024,3
2014-11-15 18:16:38.570,44689,1489.633,40.10471,-88.22189,232.6035,0,110.3906,8,10,1416096998,-0.254776,0.3353424,-0.5391998,-32.23553,0.1680756,1.555298,93.44031,96.52262,20,-0.2102214,0.04852919,0.08171537,2.218195,-0.5324701,-0.5444323,-0.1158736,0.1620495,0.09007899,0.1325996,-0.1811863,0.2036986,172.17.160.76,10.64.29.0,5,walking,0,2014-11-15 18:16:37.291,134,2014-11-15 18:16:20.024,3
2014-11-15 18:16:38.603,44690,1489.667,40.10471,-88.22189,232.6035,0,110.3906,8,10,1416096998,-0.3048401,0.3821411,-0.5794373,-32.02921,0.7879105,1.153656,92.95267,96.03499,20,-0.2827033,-0.01427188,0.0625494,2.217897,-0.5298511,-0.5502883,-0.2108144,0.06430521,0.08567377,0.1850968,-0.1777792,0.18548,172.17.160.76,10.64.29.0,5,walking,0,2014-11-15 18:16:37.291,134,2014-11-15 18:16:20.024,3
2014-11-15 18:16:38.636,44691,1489.7,40.10471,-88.22189,232.6035,0,110.3906,8,10,1416096998,-0.3711853,0.3550262,-0.5789337,-31.89167,0.856781,1.153656,92.68198,95.76429,20,-0.3165481,0.0202038,-0.01781495,2.215809,-0.5293335,-0.5572239,-0.2437213,0.06503239,0.03909552,0.0779091,-0.1562735,0.1530442,172.17.160.76,10.64.29.0,5,walking,0,2014-11-15 18:16:37.291,134,2014-11-15 18:16:20.024,3
2014-11-15 18:16:38.669,44692,1489.733,40.10471,-88.22189,232.6035,0,110.3906,8,10,1416096998,-0.3065491,0.4348145,-0.628418,-31.44466,0.9601059,1.254028,92.55279,95.6351,20,-0.2959518,0.005501025,-0.1347325,2.208385,-0.5298817,-0.5645827,-0.2273035,0.0799242,-0.09888034,0.1078721,-0.1362138,0.1166556,172.17.160.76,10.64.29.0,5,walking,0,2014-11-15 18:16:37.291,134,2014-11-15 18:16:20.024,3
2014-11-15 18:16:38.703,44693,1489.767,40.10471,-88.22189,232.6035,0,110.3906,8,10,1416096998,-0.3685303,0.509552,-0.6508636,-31.44466,1.166725,1.588684,92.49523,95.57755,20,-0.2610401,-0.06623814,-0.06412173,2.203274,-0.5313561,-0.5673646,-0.2240928,0.04582322,-0.1118098,0.1136684,-0.06661677,0.08495396,172.17.160.76,10.64.29.0,5,walking,0,2014-11-15 18:16:37.291,134,2014-11-15 18:16:20.024,3
