time,timestamp,recordtime,lat,long,alt,speed,course,verticalAccuracy,horizontalAccuracy,locTimeStamp,accelerationX,accelerationY,accelerationZ,HeadingX,HeadingY,HeadingZ,TrueHeading,MagneticHeading,HeadingAccuracy,RotationX,RotationY,RotationZ,motionYaw,motionRoll,motionPitch,motionRotationRateX,motionRotationRateY,motionRotationRateZ,motionUserAccelerationX,motionUserAccelerationY,motionUserAccelerationZ,en0,pdp_ip0,DeviceOrientation,Activity,Activity Confidence,Activity Start,Steps,Last Step Date,State
2014-11-15 17:54:18.319,5089,169.6333,40.10466,-88.22179,235.6531,0,92.46094,6,30,1416095658,-0.09906006,0.8844299,0.467865,-29.42092,41.89867,3.142517,129.6582,132.7406,10,-0.1043879,0.004094876,-0.02718608,-1.50944,-2.919822,-1.068458,-0.03556089,0.06387026,-0.01871043,0.00161026,-0.003824452,-0.001834579,172.17.160.76,10.64.29.0,2,unknown,2,2014-11-15 17:53:44.677,8,2014-11-15 17:52:35.410,3
2014-11-15 17:54:18.350,5090,169.6667,40.10466,-88.22179,235.6531,0,92.46094,6,30,1416095658,-0.09906006,0.8844299,0.467865,-29.42092,41.89867,3.142517,129.6582,132.7406,10,-0.1043879,0.004094876,-0.02718608,-1.50944,-2.919822,-1.068458,-0.03556089,0.06387026,-0.01871043,0.00161026,-0.003824452,-0.001834579,172.17.160.76,10.64.29.0,2,unknown,2,2014-11-15 17:53:44.677,8,2014-11-15 17:52:35.410,3
2014-11-15 17:54:18.384,5091,169.7,40.10466,-88.22179,235.6531,0,92.46094,6,30,1416095658,-0.09225464,0.8809662,0.4680481,-29.07636,41.82977,3.343628,129.6704,132.7527,10,-0.1086594,0.01582557,-0.0218009,-1.509152,-2.918213,-1.067927,-0.03557717,0.07136422,-0.01124044,0.001095895,0.006105501,-0.005031886,172.17.160.76,10.64.29.0,2,unknown,2,2014-11-15 17:53:44.677,8,2014-11-15 17:52:35.410,3
2014-11-15 17:54:18.418,5092,169.7333,40.10466,-88.22179,235.6531,0,92.46094,6,30,1416095658,-0.08213806,0.8847046,0.4680023,-29.31753,41.45074,3.109009,129.68,132.7623,10,-0.09804827,0.03936525,0.0005744438,-1.51001,-2.917412,-1.067386,-0.03986336,0.09697168,0.00271118,0.01498989,0.005023562,-0.002295533,172.17.160.76,10.64.29.0,2,unknown,2,2014-11-15 17:53:44.677,8,2014-11-15 17:52:35.410,3
2014-11-15 17:54:18.451,5093,169.7667,40.10466,-88.22179,235.6531,0,92.46094,6,30,1416095658,-0.08213806,0.8847046,0.4680023,-29.31753,41.45074,3.109009,129.68,132.7623,10,-0.09804827,0.03936525,0.0005744438,-1.51001,-2.917412,-1.067386,-0.03986336,0.09697168,0.00271118,0.01498989,0.005023562,-0.002295533,172.17.160.76,10.64.29.0,2,unknown,2,2014-11-15 17:53:44.677,8,2014-11-15 17:52:35.410,3
2014-11-15 17:54:18.484,5094,169.8,40.10466,-88.22179,235.6531,0,92.46094,6,30,1416095658,-0.09815979,0.8800659,0.474884,-30.35118,41.86419,3.243164,129.6782,132.7605,10,-0.0661159,-0.07763274,-0.01289902,-1.526692,-2.929283,-1.070794,0.005924539,-0.003985571,0.001944773,0.009242564,-0.003451001,0.008356988,172.17.160.76,10.64.29.0,2,unknown,2,2014-11-15 17:53:44.677,8,2014-11-15 17:52:35.410,3
2014-11-15 17:54:18.518,5095,169.8333,40.10466,-88.22179,235.6531,0,92.46094,6,30,1416095658,-0.09631348,0.8674774,0.4645538,-30.35118,41.86419,3.243164,129.6782,132.7605,10,-0.07037137,-0.08297557,-0.01715715,-1.526965,-2.929813,-1.070681,-0.0004777015,-0.0146169,0.0008515007,0.0007754345,0.00606356,0.009518988,172.17.160.76,10.64.29.0,2,unknown,2,2014-11-15 17:53:44.677,8,2014-11-15 17:52:35.410,3
2014-11-15 17:54:18.551,5096,169.8667,40.10466,-88.22179,235.6531,0,92.46094,6,30,1416095658,-0.09857178,0.8625793,0.4656372,-30.35119,41.58854,3.10907,129.6642,132.7465,10,-0.06183248,-0.090458,-0.02253594,-1.527185,-2.93043,-1.070615,0.0006029583,-0.01997902,-0.005549123,0.007044038,-0.002068445,-0.0008228109,172.17.160.76,10.64.29.0,2,unknown,2,2014-11-15 17:53:44.677,8,2014-11-15 17:52:35.410,3
2014-11-15 17:54:18.584,5097,169.9,40.10466,-88.22179,235.6531,0,92.46094,6,30,1416095658,-0.1071167,0.8638916,0.4678497,-30.4201,41.72636,2.840942,129.661,132.7433,10,-0.05864947,-0.09787384,-0.01940246,-1.527156,-2.930671,-1.070584,0.00699957,-0.02317837,-0.006651249,0.001840308,-0.01490158,-0.003345348,172.17.160.76,10.64.29.0,2,unknown,2,2014-11-15 17:53:44.677,8,2014-11-15 17:52:35.410,3
2014-11-15 17:54:18.618,5098,169.9333,40.10466,-88.22179,235.6531,0,92.46094,6,30,1416095658,-0.116684,0.8751678,0.4693298,-30.3512,41.9331,2.706848,129.6676,132.75,10,-0.06186843,-0.09569111,-0.01194854,-1.526828,-2.93062,-1.070559,0.01018205,-0.0305941,-0.003518326,-0.006675871,-0.01357708,-0.001149587,172.17.160.76,10.64.29.0,2,unknown,2,2014-11-15 17:53:44.677,8,2014-11-15 17:52:35.410,3
2014-11-15 17:54:18.651,5099,169.9667,40.10466,-88.22179,235.6531,0,92.46094,6,30,1416095658,-0.116684,0.8751678,0.4693298,-30.3512,41.9331,2.706848,129.6676,132.75,10,-0.06186843,-0.09569111,-0.01194854,-1.526828,-2.93062,-1.070559,0.01018205,-0.0305941,-0.003518326,-0.006675871,-0.01357708,-0.001149587,172.17.160.76,10.64.29.0,2,unknown,2,2014-11-15 17:53:44.677,8,2014-11-15 17:52:35.410,3
2014-11-15 17:54:18.684,5100,170,40.10466,-88.22179,235.6531,0,92.46094,6,30,1416095658,-0.116684,0.8751678,0.4693298,-29.45536,41.79528,2.773865,129.7021,132.7844,10,-0.06294169,-0.08822041,-0.007659251,-1.525886,-2.930181,-1.070491,0.006973457,-0.02842263,0.003900321,-0.01741351,-0.004938491,0.004619225,172.17.160.76,10.64.29.0,2,unknown,2,2014-11-15 17:53:44.677,8,2014-11-15 17:52:35.410,3
2014-11-15 17:54:18.718,5101,170.0333,40.10466,-88.22179,235.6531,0,92.46094,6,30,1416095658,-0.1085968,0.8743591,0.4606934,-29.55872,41.69192,2.874451,129.717,132.7993,10,-0.06719315,-0.07121666,-0.00755379,-1.525541,-2.929988,-1.070493,0.005899965,-0.02095152,0.008188586,-0.01593481,-0.002269259,0.00033758,172.17.160.76,10.64.29.0,2,unknown,2,2014-11-15 17:53:44.677,8,2014-11-15 17:52:35.410,3
2014-11-15 17:54:18.750,5102,170.0667,40.10466,-88.22179,235.6531,0,92.46094,6,30,1416095658,-0.1058655,0.8694305,0.4593048,-29.55872,41.69192,2.874451,129.717,132.7993,10,-0.06719315,-0.07121666,-0.00755379,-1.525541,-2.929988,-1.070493,0.005899965,-0.02095152,0.008188586,-0.01593481,-0.002269259,0.00033758,172.17.160.76,10.64.29.0,2,unknown,2,2014-11-15 17:53:44.677,8,2014-11-15 17:52:35.410,3
2014-11-15 17:54:18.784,5103,170.1,40.10466,-88.22179,235.6531,0,92.46094,6,30,1416095658,-0.1038971,0.8676147,0.4657745,-30.31674,41.82975,2.941467,129.7137,132.796,10,-0.07248672,-0.0478847,-0.01377999,-1.525197,-2.929718,-1.070683,0.001648897,-0.003947258,0.008292741,-0.007755756,-0.003168855,-0.00810907,172.17.160.76,10.64.29.0,2,unknown,2,2014-11-15 17:53:44.677,8,2014-11-15 17:52:35.410,3
2014-11-15 17:54:18.817,5104,170.1333,40.10466,-88.22179,235.6531,0,92.46094,6,30,1416095658,-0.1078796,0.8719177,0.469986,-30.24783,41.76083,3.008545,129.7096,132.7919,10,-0.07568251,-0.0404369,-0.01266733,-1.525061,-2.929298,-1.070689,-0.003644773,0.0193848,0.002065853,-0.00286077,-0.009916558,-0.002979633,172.17.160.76,10.64.29.0,2,unknown,2,2014-11-15 17:53:44.677,8,2014-11-15 17:52:35.410,3
2014-11-15 17:54:18.851,5105,170.1667,40.10466,-88.22179,235.6531,0,92.46094,6,30,1416095658,-0.1078796,0.8719177,0.469986,-30.3512,41.86419,3.042053,129.6969,132.7792,10,-0.07355917,-0.04360979,-0.01056902,-1.525061,-2.929298,-1.070689,-0.003644773,0.0193848,0.002065853,-0.00286077,-0.009916558,-0.002979633,172.17.160.76,10.64.29.0,2,unknown,2,2014-11-15 17:53:44.677,8,2014-11-15 17:52:35.410,3
2014-11-15 17:54:18.885,5106,170.2,40.10466,-88.22179,235.6531,0,92.46094,6,30,1416095658,-0.08757019,0.8719025,0.4691925,-30.24784,42.24319,3.34375,129.6781,132.7604,10,-0.05013294,-0.06271638,-0.006511429,-1.531305,-2.930168,-1.070387,-0.0004656024,0.02795229,0.01374101,0.00873468,0.01297914,-0.0001525945,172.17.160.76,10.64.29.0,2,unknown,2,2014-11-15 17:53:44.677,8,2014-11-15 17:52:35.410,3
2014-11-15 17:54:18.918,5107,170.2333,40.10466,-88.22179,235.6531,0,92.46094,6,30,1416095658,-0.09654236,0.8714294,0.470932,-30.24784,42.24319,3.34375,129.6781,132.7604,10,-0.05013294,-0.06271638,-0.006511429,-1.531305,-2.930168,-1.070387,-0.0004656024,0.02795229,0.01374101,0.00873468,0.01297914,-0.0001525945,172.17.160.76,10.64.29.0,2,unknown,2,2014-11-15 17:53:44.677,8,2014-11-15 17:52:35.410,3
2014-11-15 17:54:18.951,5108,170.2667,40.10466,-88.22179,235.6531,0,92.46094,6,30,1416095658,-0.1021729,0.8715057,0.471283,-29.73102,42.13982,3.243225,129.6908,132.7731,10,-0.04801839,-0.1031282,-0.01097808,-1.532551,-2.931153,-1.070766,0.01871848,0.004532219,0.009301754,0.01430686,-5.054627e-05,0.001386022,172.17.160.76,10.64.29.0,2,unknown,2,2014-11-15 17:53:44.677,8,2014-11-15 17:52:35.410,3
2014-11-15 17:54:18.984,5109,170.3,40.10466,-88.22179,235.6531,0,92.46094,6,30,1416095658,-0.1082916,0.8744507,0.4745178,-29.24865,42.07092,3.645508,129.7062,132.7885,10,-0.04801839,-0.1031282,-0.01097808,-1.532992,-2.931783,-1.070986,0.02190434,-0.01992575,0.00703879,0.01224688,-0.005771211,0.0004436704,172.17.160.76,10.64.29.0,2,unknown,2,2014-11-15 17:53:44.677,8,2014-11-15 17:52:35.410,3
2014-11-15 17:54:19.018,5110,170.3333,40.10466,-88.22179,235.6531,0,92.46094,6,30,1416095658,-0.109726,0.8708649,0.4699249,-29.2831,41.34734,3.544922,129.7043,132.7866,10,-0.04907567,-0.1084727,-0.0152482,-1.533121,-2.932257,-1.071131,0.02083219,-0.03588048,0.004835959,0.003026013,-0.0063137,0.002260358,172.17.160.76,10.64.29.0,2,stationary,1,2014-11-15 17:54:18.716,8,2014-11-15 17:52:35.410,3
2014-11-15 17:54:19.051,5111,170.3667,40.10466,-88.22179,235.6531,0,92.46094,6,30,1416095658,-0.09344482,0.8816528,0.4549103,-29.2831,41.34734,3.544922,129.7043,132.7866,10,-0.03512816,-0.1055075,-0.04394482,-1.536603,-2.935501,-1.075216,0.04219122,-0.05938096,-0.007135653,0.0043564,0.008902905,-0.01235431,172.17.160.76,10.64.29.0,2,stationary,1,2014-11-15 17:54:18.716,8,2014-11-15 17:52:35.410,3
2014-11-15 17:54:19.085,5112,170.4,40.10466,-88.22179,235.6531,0,92.46094,6,30,1416095658,-0.09344482,0.8816528,0.4549103,-29.73102,41.51963,3.17627,129.6842,132.7666,10,-0.04362391,-0.1045206,-0.05452263,-1.53616,-2.935628,-1.076012,0.03690025,-0.04776184,-0.01660764,0.0030401,0.00612877,-0.008979809,172.17.160.76,10.64.29.0,2,stationary,1,2014-11-15 17:54:18.716,8,2014-11-15 17:52:35.410,3
2014-11-15 17:54:19.118,5113,170.4333,40.10466,-88.22179,235.6531,0,92.46094,6,30,1416095658,-0.09950256,0.8766937,0.4571075,-29.48983,41.34734,3.276794,129.6755,132.7578,10,-0.04362391,-0.1045206,-0.05452263,-1.535543,-2.935501,-1.076455,0.03374495,-0.03828492,-0.02822202,0.003645036,0.001371411,-0.00950137,172.17.160.76,10.64.29.0,2,stationary,1,2014-11-15 17:54:18.716,8,2014-11-15 17:52:35.410,3
2014-11-15 17:54:19.151,5114,170.4667,40.10466,-88.22181,235.5769,0.43,161.7188,8,30,1416095659,-0.2190399,0.8182068,0.4429779,-29.6621,41.45072,2.975159,129.6682,132.7505,10,-0.2284579,0.1276022,0.1395201,-1.528084,-2.928622,-1.07284,-0.1082179,0.1176377,0.07071837,-0.09962229,-0.05501301,-0.01200631,172.17.160.76,10.64.29.0,2,stationary,1,2014-11-15 17:54:18.716,8,2014-11-15 17:52:35.410,3
2014-11-15 17:54:19.184,5115,170.5,40.10466,-88.22181,235.5769,0.43,161.7188,8,30,1416095659,-0.2063751,0.8537445,0.4708405,-29.79992,41.45072,2.908081,130.1607,133.243,10,-0.274377,0.3386113,0.2193529,-1.543906,-2.933673,-1.067737,-0.2001714,0.3355403,0.2165716,-0.1217638,-0.03021041,-0.01568494,172.17.160.76,10.64.29.0,2,stationary,1,2014-11-15 17:54:18.716,8,2014-11-15 17:52:35.410,3
2014-11-15 17:54:19.218,5116,170.5333,40.10466,-88.22181,235.5769,0.43,161.7188,8,30,1416095659,-0.1657867,0.8268738,0.4754639,-29.73101,41.10616,2.975098,130.5699,133.6522,10,-0.2881751,0.4534431,0.2285011,-1.566452,-2.9354,-1.061641,-0.2054312,0.4982482,0.2344317,-0.07008043,-0.03227535,-0.0006892941,172.17.160.76,10.64.29.0,2,stationary,1,2014-11-15 17:54:18.716,8,2014-11-15 17:52:35.410,3
2014-11-15 17:54:19.251,5117,170.5667,40.10466,-88.22181,235.5769,0.43,161.7188,8,30,1416095659,-0.1513062,0.8270569,0.4730682,-29.42092,41.27843,2.539368,132.303,135.3853,10,-0.3095107,0.4811693,0.2404033,-1.566452,-2.9354,-1.061641,-0.2054312,0.4982482,0.2344317,-0.07008043,-0.03227535,-0.0006892941,172.17.160.76,10.64.29.0,2,stationary,1,2014-11-15 17:54:18.716,8,2014-11-15 17:52:35.410,3
2014-11-15 17:54:19.284,5118,170.6,40.10466,-88.22181,235.5769,0.43,161.7188,8,30,1416095659,-0.05296326,0.890213,0.5230103,-29.04191,42.00201,1.902527,135.4801,138.5624,10,-0.3694382,0.6505048,0.005870406,-1.596642,-2.925422,-1.047951,-0.3156504,0.7042463,0.07240427,0.01668193,0.00162498,0.001974563,172.17.160.76,10.64.29.0,2,stationary,1,2014-11-15 17:54:18.716,8,2014-11-15 17:52:35.410,3
2014-11-15 17:54:19.318,5119,170.6333,40.10466,-88.22181,235.5769,0.43,161.7188,8,30,1416095659,-0.03483582,0.9092255,0.5763092,-28.73182,42.3121,1.60083,137.3564,140.4387,10,-0.2350304,0.6001918,-0.03523415,-1.600891,-2.907812,-1.040025,-0.2215745,0.7003478,-0.01607096,0.07038929,0.03658515,0.05278298,172.17.160.76,10.64.29.0,2,stationary,1,2014-11-15 17:54:18.716,8,2014-11-15 17:52:35.410,3
2014-11-15 17:54:19.351,5120,170.6667,40.10466,-88.22181,235.5769,0.43,161.7188,8,30,1416095659,0.01670837,0.8992004,0.5493164,-28.69737,42.27764,1.1651,139.3277,142.41,10,-0.118895,0.3724734,-0.0718971,-1.601289,-2.889544,-1.036053,-0.07452053,0.5364814,-0.0376528,0.1140165,0.05366324,0.08472866,172.17.160.76,10.64.29.0,2,stationary,1,2014-11-15 17:54:18.716,8,2014-11-15 17:52:35.410,3
2014-11-15 17:54:19.384,5121,170.7,40.10466,-88.22181,235.5769,0.43,161.7188,8,30,1416095659,0.006011963,0.8935699,0.519989,-28.45618,41.82972,1.399719,140.9264,144.0087,10,-0.03728585,-0.1097009,-0.03652845,-1.596828,-2.873223,-1.033887,-0.02249489,0.136693,-0.06967451,0.1546372,0.02872235,0.0311941,172.17.160.76,10.64.29.0,2,unknown,2,2014-11-15 17:54:19.335,8,2014-11-15 17:52:35.410,3
2014-11-15 17:54:19.418,5122,170.7333,40.10466,-88.22181,235.5769,0.43,161.7188,8,30,1416095659,-0.02557373,0.9012604,0.5036316,-28.52508,41.34734,1.466797,141.028,144.1103,10,0.07764686,-0.3360126,-0.02753575,-1.594815,-2.872065,-1.034393,0.07838912,-0.1221761,-0.005664143,0.1168692,0.04903225,0.03203049,172.17.160.76,10.64.29.0,2,unknown,2,2014-11-15 17:54:19.335,8,2014-11-15 17:52:35.410,3
2014-11-15 17:54:19.451,5123,170.7667,40.10466,-88.22181,235.5769,0.43,161.7188,8,30,1416095659,-0.04890442,0.8494568,0.4783783,-28.38726,41.27843,1.60083,140.9674,144.0497,10,0.1148257,-0.4921937,-0.02319001,-1.592121,-2.877195,-1.038282,0.1646104,-0.3284282,-0.01556507,0.1042033,0.02826759,0.003365122,172.17.160.76,10.64.29.0,2,unknown,2,2014-11-15 17:54:19.335,8,2014-11-15 17:52:35.410,3
2014-11-15 17:54:19.485,5124,170.8,40.10466,-88.22181,235.5769,0.43,161.7188,8,30,1416095659,-0.1149597,0.8395386,0.4543915,-28.45617,41.41625,1.131592,139.9718,143.0541,10,0.08165545,-0.5525537,0.002091913,-1.589782,-2.883017,-1.041676,0.183701,-0.4250708,-0.00765368,0.08016836,-0.0137945,-0.009614977,172.17.160.76,10.64.29.0,2,unknown,2,2014-11-15 17:54:19.335,8,2014-11-15 17:52:35.410,3
2014-11-15 17:54:19.518,5125,170.8333,40.10466,-88.22181,235.5769,0.43,161.7188,8,30,1416095659,-0.1158752,0.8430786,0.4473572,-28.90409,41.72636,1.232117,138.4511,141.5334,10,-0.06071528,-0.4269995,-0.1251531,-1.586772,-2.908842,-1.049026,0.0389041,-0.4116262,-0.0654192,-0.01060233,-0.03788226,-0.04558432,172.17.160.76,10.64.29.0,2,unknown,2,2014-11-15 17:54:19.335,8,2014-11-15 17:52:35.410,3
2014-11-15 17:54:19.551,5126,170.8667,40.10466,-88.22181,235.5769,0.43,161.7188,8,30,1416095659,-0.1627197,0.9081879,0.5437622,-28.86963,41.76081,1.667847,135.7748,138.8571,10,-0.02208373,-0.294577,-0.1755516,-1.578779,-2.911542,-1.048208,0.004163015,-0.2615346,-0.17277,-0.005723509,0.001130111,-0.0142798,172.17.160.76,10.64.29.0,2,unknown,2,2014-11-15 17:54:19.335,8,2014-11-15 17:52:35.410,3
2014-11-15 17:54:19.584,5127,170.9,40.10466,-88.22181,235.5769,0.43,161.7188,8,30,1416095659,-0.2288208,0.8853302,0.5408936,-28.973,41.72637,2.237671,134.8507,137.933,10,0.08736526,-0.2862909,-0.05597033,-1.572534,-2.91064,-1.048777,0.1074199,-0.2111728,-0.1102641,-0.0485805,0.0413739,0.0583698,172.17.160.76,10.64.29.0,2,unknown,2,2014-11-15 17:54:19.335,8,2014-11-15 17:52:35.410,3
2014-11-15 17:54:19.617,5128,170.9333,40.10466,-88.22181,235.5769,0.43,161.7188,8,30,1416095659,-0.2078094,0.84552,0.4661255,-28.73182,42.17428,2.27124,135.4362,138.5186,10,0.04965198,-0.2150061,0.09527672,-1.572769,-2.9199,-1.055342,0.1451033,-0.2105215,0.1199397,-0.1313752,-0.0008670071,0.02892927,172.17.160.76,10.64.29.0,2,unknown,2,2014-11-15 17:54:19.335,8,2014-11-15 17:52:35.410,3
2014-11-15 17:54:19.651,5129,170.9667,40.10466,-88.22181,235.5769,0.43,161.7188,8,30,1416095659,-0.1251984,0.8281097,0.4467163,-28.66291,41.96755,1.936035,135.1621,138.2444,10,0.007422496,-0.05313379,-0.0003075951,-1.575696,-2.924952,-1.057988,0.09632453,-0.06423382,0.071003,-0.07244183,-0.02687244,-0.01677075,172.17.160.76,10.64.29.0,2,unknown,2,2014-11-15 17:54:19.335,8,2014-11-15 17:52:35.410,3
2014-11-15 17:54:19.685,5130,171,40.10466,-88.22181,235.5769,0.43,161.7188,8,30,1416095659,-0.08564758,0.81073,0.4298096,-28.62845,42.27764,1.902527,135.5536,138.636,10,-0.1575081,-0.04637203,-0.1004952,-1.570418,-2.917838,-1.059198,-0.02783113,0.04830377,-0.09034637,0.02374771,-0.07263129,-0.05283735,172.17.160.76,10.64.29.0,2,unknown,2,2014-11-15 17:54:19.335,8,2014-11-15 17:52:35.410,3
2014-11-15 17:54:19.718,5131,171.0333,40.10466,-88.22181,235.5769,0.43,161.7188,8,30,1416095659,-0.141571,0.8813171,0.4760132,-28.52509,41.96755,1.868958,135.7403,138.8226,10,-0.1171647,-0.06833139,-0.05087224,-1.567091,-2.914412,-1.056896,-0.09080012,0.01551312,-0.07435911,-0.0001975351,-0.01719614,-0.02745427,172.17.160.76,10.64.29.0,2,unknown,2,2014-11-15 17:54:19.335,8,2014-11-15 17:52:35.410,3
2014-11-15 17:54:19.751,5132,171.0667,40.10466,-88.22181,235.5769,0.43,161.7188,8,30,1416095659,-0.1747742,0.8880005,0.5048981,-28.42172,41.72637,1.902527,136.0573,139.1396,10,-0.05136758,-0.05697141,0.05084347,-1.563944,-2.911159,-1.055173,-0.01321885,-0.004146313,0.0006085734,-0.04102198,0.01752669,0.007108126,172.17.160.76,10.64.29.0,2,unknown,2,2014-11-15 17:54:19.335,8,2014-11-15 17:52:35.410,3
2014-11-15 17:54:19.784,5133,171.1,40.10466,-88.22181,235.5769,0.43,161.7188,8,30,1416095659,-0.1340637,0.8750153,0.4956818,-28.38726,41.48519,2.338318,135.6561,138.7384,10,-0.06846934,0.07090081,0.09828609,-1.566483,-2.911489,-1.055533,0.009954162,0.0859665,0.1156292,-0.05850952,0.01277165,0.02197854,172.17.160.76,10.64.29.0,2,unknown,2,2014-11-15 17:54:19.335,8,2014-11-15 17:52:35.410,3
2014-11-15 17:54:19.818,5134,171.1333,40.10466,-88.22181,235.5769,0.43,161.7188,8,30,1416095659,-0.08950806,0.8500824,0.4820862,-28.55954,41.45074,2.438843,135.4147,138.497,10,-0.08747472,0.1236809,0.05086851,-1.572366,-2.911698,-1.055733,-0.01224338,0.1962163,0.08020183,-0.003809561,-0.006095422,0.009170176,172.17.160.76,10.64.29.0,2,unknown,2,2014-11-15 17:54:19.335,8,2014-11-15 17:52:35.410,3
2014-11-15 17:54:19.851,5135,171.1667,40.10466,-88.22181,235.5769,0.43,161.7188,8,30,1416095659,-0.1002045,0.8577881,0.4841461,-28.5251,41.41628,2.740479,135.1179,138.2002,10,-0.07905248,0.02067625,0.05984789,-1.579262,-2.911678,-1.055359,-0.01548277,0.1100811,0.07127079,0.0208716,-0.01743126,0.002858422,172.17.160.76,10.64.29.0,2,unknown,2,2014-11-15 17:54:19.335,8,2014-11-15 17:52:35.410,3
2014-11-15 17:54:19.884,5136,171.2,40.10466,-88.22181,235.5769,0.43,161.7188,8,30,1416095659,-0.102478,0.8685608,0.488739,-28.45619,41.82975,2.472412,135.7761,138.8584,10,-0.07904209,-0.003835485,0.05016543,-1.582293,-2.912617,-1.055521,-0.005922033,0.07396362,0.0731677,0.01164536,-0.01236874,0.004232876,172.17.160.76,10.64.29.0,2,unknown,2,2014-11-15 17:54:19.335,8,2014-11-15 17:52:35.410,3
2014-11-15 17:54:19.918,5137,171.2333,40.10466,-88.22181,235.5769,0.43,161.7188,8,30,1416095659,-0.1407166,0.8495636,0.5259399,-28.18055,42.38103,2.338318,136.4657,139.548,10,-0.1155287,-0.01279755,0.1277431,-1.588539,-2.915888,-1.05515,-0.03478174,0.05180586,0.09226674,0.01017791,-0.0004522054,0.0233158,172.17.160.76,10.64.29.0,2,unknown,2,2014-11-15 17:54:19.335,8,2014-11-15 17:52:35.410,3
2014-11-15 17:54:19.951,5138,171.2667,40.10466,-88.22181,235.5769,0.43,161.7188,8,30,1416095659,-0.1883698,0.9542236,0.5931091,-28.11164,42.65667,1.869019,137.1213,140.2036,10,-0.001958489,0.03523415,0.3048382,-1.604776,-2.926893,-1.055507,0.05415507,0.1001216,0.3055434,-0.07237832,0.01920814,0.1038245,172.17.160.76,10.64.29.0,2,unknown,2,2014-11-15 17:54:19.335,8,2014-11-15 17:52:35.410,3
2014-11-15 17:54:19.984,5139,171.3,40.10466,-88.22181,235.5769,0.43,161.7188,8,30,1416095659,-0.1363525,0.9608459,0.5356598,-28.11164,42.58776,1.399841,136.5119,139.5942,10,0.2169632,0.1640593,0.2112864,-1.622681,-2.939304,-1.059589,0.1032431,0.09358525,0.2872799,-0.08299766,0.1025464,0.09006584,172.17.160.76,10.64.29.0,2,unknown,2,2014-11-15 17:54:19.335,8,2014-11-15 17:52:35.410,3
2014-11-15 17:54:20.018,5140,171.3333,40.10466,-88.22181,235.5769,0.43,161.7188,8,30,1416095659,0.0113678,0.9173584,0.4158783,-27.80154,42.62223,1.232239,136.894,139.9763,10,0.428456,0.431202,0.1418434,-1.632278,-2.94097,-1.068185,0.369161,0.347783,0.1952707,0.01054697,0.07756046,0.03363763,172.17.160.76,10.64.29.0,2,unknown,2,2014-11-15 17:54:19.335,8,2014-11-15 17:52:35.410,3
2014-11-15 17:54:20.051,5141,171.3667,40.10466,-88.22181,235.5769,0.43,161.7188,8,30,1416095659,-0.04289246,0.7954865,0.4588623,-27.66372,42.41549,0.8970337,136.2552,139.3376,10,0.428456,0.431202,0.1418434,-1.634088,-2.938247,-1.072763,0.4535356,0.4570049,0.1711158,0.07039241,0.065797,-0.004019883,172.17.160.76,10.64.29.0,2,unknown,2,2014-11-15 17:54:19.335,8,2014-11-15 17:52:35.410,3
2014-11-15 17:54:20.088,5142,171.4,40.10466,-88.22181,235.5769,0.43,161.7188,8,30,1416095659,-0.04196167,0.8520813,0.4074402,-25.97541,42.44994,1.131653,136.7432,139.8255,10,0.3709959,-0.6735555,0.1787002,-1.662171,-2.96456,-1.098795,0.4014168,-0.4753198,0.2481368,0.2002651,0.02799546,0.0006630706,172.17.160.76,10.64.29.0,2,unknown,2,2014-11-15 17:54:19.335,8,2014-11-15 17:52:35.410,3
2014-11-15 17:54:20.118,5143,171.4333,40.10466,-88.22183,235.6079,0.35,210.9375,8,30,1416095660,-0.2011414,0.7439423,0.3147125,-25.42412,42.31213,1.131653,133.861,136.9433,10,0.4296944,-0.8935838,0.4543686,-1.668159,-2.982851,-1.108336,0.4747688,-0.7622831,0.2431665,0.02856394,-0.04287608,-0.03310201,172.17.160.76,10.64.29.0,2,unknown,2,2014-11-15 17:54:19.335,8,2014-11-15 17:52:35.410,3
2014-11-15 17:54:20.151,5144,171.4667,40.10466,-88.22183,235.6079,0.35,210.9375,8,30,1416095660,-0.3929749,0.8165588,0.5105133,-25.2863,42.72558,0.5283203,132.7648,135.8471,10,0.3540031,-0.7072392,0.5023385,-1.692534,-3.029309,-1.124633,0.4803075,-0.7782418,0.5232928,-0.2429408,-0.1728766,-0.09923083,172.17.160.76,10.64.29.0,2,unknown,2,2014-11-15 17:54:19.335,8,2014-11-15 17:52:35.410,3
2014-11-15 17:54:20.185,5145,171.5,40.10466,-88.22183,235.6079,0.35,210.9375,8,30,1416095660,-0.3601532,0.8778229,0.5254211,-25.04511,42.69112,0.5618896,131.0186,134.1009,10,0.1570072,0.1764408,0.2996791,-1.714205,-3.060416,-1.133485,0.3240449,-0.4066767,0.469576,-0.3561007,-0.1437172,0.03044998,172.17.160.76,10.64.29.0,2,unknown,2,2014-11-15 17:54:19.335,8,2014-11-15 17:52:35.410,3
2014-11-15 17:54:20.218,5146,171.5333,40.10466,-88.22183,235.6079,0.35,210.9375,8,30,1416095660,-0.1855164,0.990036,0.5209961,-25.01065,42.79449,-0.07495117,126.8302,129.9125,10,0.1429715,0.8566329,0.1780587,-1.731032,-3.07592,-1.138842,0.2258666,0.2435567,0.3152069,-0.3326792,-0.03032632,0.1076769,172.17.160.76,10.64.29.0,2,unknown,2,2014-11-15 17:54:19.335,8,2014-11-15 17:52:35.410,3
2014-11-15 17:54:20.250,5147,171.5667,40.10466,-88.22183,235.6079,0.35,210.9375,8,30,1416095660,-0.1855164,0.990036,0.5209961,-24.39046,42.51884,-0.4101562,126.6899,129.7722,10,0.1429715,0.8566329,0.1780587,-1.731032,-3.07592,-1.138842,0.2258666,0.2435567,0.3152069,-0.3326792,-0.03032632,0.1076769,172.17.160.76,10.64.29.0,2,unknown,2,2014-11-15 17:54:19.335,8,2014-11-15 17:52:35.410,3
2014-11-15 17:54:20.284,5148,171.6,40.10466,-88.22183,235.6079,0.35,210.9375,8,30,1416095660,-0.114563,0.9728394,0.5103302,-24.08036,42.6222,-0.5776978,127.3352,130.4175,10,0.1429715,0.8566329,0.1780587,-1.73698,-3.076226,-1.14117,0.2114186,0.5968829,0.2470638,-0.2831557,0.03071331,0.1339339,172.17.160.76,10.64.29.0,2,unknown,2,2014-11-15 17:54:19.335,8,2014-11-15 17:52:35.410,3
2014-11-15 17:54:20.318,5149,171.6333,40.10466,-88.22183,235.6079,0.35,210.9375,8,30,1416095660,0.1005249,0.8590088,0.208847,-22.42653,42.00201,-2.320557,135.3312,138.4135,10,0.4662782,0.0322839,0.2245197,-1.749463,-2.971887,-1.16949,0.5810252,0.1982609,0.2488876,0.1652009,0.04050799,-0.08546428,172.17.160.76,10.64.29.0,2,unknown,2,2014-11-15 17:54:19.335,8,2014-11-15 17:52:35.410,3
2014-11-15 17:54:20.351,5150,171.6667,40.10466,-88.22183,235.6079,0.35,210.9375,8,30,1416095660,-0.08227539,1.030457,0.3639679,-21.90969,41.82972,-2.555176,134.4652,137.5475,10,0.3525666,-0.3017713,0.02150476,-1.756312,-2.976986,-1.180635,0.5021474,-0.04345224,0.184129,0.15792,-0.1071597,-0.1984234,172.17.160.76,10.64.29.0,2,unknown,2,2014-11-15 17:54:19.335,8,2014-11-15 17:52:35.410,3
2014-11-15 17:54:20.384,5151,171.7,40.10466,-88.22183,235.6079,0.35,210.9375,8,30,1416095660,-0.1177368,1.101471,0.4344635,-21.63405,41.7608,-3.024414,134.2228,137.3051,10,0.3525666,-0.3017713,0.02150476,-1.757609,-2.979805,-1.185557,0.4681403,-0.194876,0.1102166,0.1079715,-0.07769438,-0.1540764,172.17.160.76,10.64.29.0,2,unknown,2,2014-11-15 17:54:19.335,8,2014-11-15 17:52:35.410,3
2014-11-15 17:54:20.417,5152,171.7333,40.10466,-88.22183,235.6079,0.35,210.9375,8,30,1416095660,-0.112442,1.141296,0.4132538,-21.42731,41.8297,-2.957397,133.5237,136.606,10,0.3612708,-0.06374489,0.02378709,-1.755839,-2.982222,-1.193974,0.4098397,-0.1435145,0.01304899,-0.02388022,0.100618,0.0006632488,172.17.160.76,10.64.29.0,2,unknown,2,2014-11-15 17:54:19.335,8,2014-11-15 17:52:35.410,3
2014-11-15 17:54:20.451,5153,171.7667,40.10466,-88.22183,235.6079,0.35,210.9375,8,30,1416095660,-0.112442,1.141296,0.4132538,-21.0483,41.51962,-3.393066,133.6997,136.782,10,0.4039653,0.08195399,0.04350114,-1.755839,-2.982222,-1.193974,0.4098397,-0.1435145,0.01304899,-0.02388022,0.100618,0.0006632488,172.17.160.76,10.64.29.0,2,unknown,2,2014-11-15 17:54:19.335,8,2014-11-15 17:52:35.410,3
2014-11-15 17:54:20.484,5154,171.8,40.10466,-88.22183,235.6079,0.35,210.9375,8,30,1416095660,-0.0664978,1.142273,0.3486176,-20.15246,40.55488,-4.599792,135.9995,139.0818,10,0.4039653,0.08195399,0.04350114,-1.754864,-2.98166,-1.198214,0.4301283,0.003305941,0.03922171,-0.05976573,0.1700807,0.07508697,172.17.160.76,10.64.29.0,2,unknown,2,2014-11-15 17:54:19.335,8,2014-11-15 17:52:35.410,3
2014-11-15 17:54:20.518,5155,171.8333,40.10466,-88.22183,235.6079,0.35,210.9375,8,30,1416095660,0.05136108,0.9496307,0.2451935,-20.01464,40.14143,-5.203125,136.6918,139.7742,10,0.2020668,0.1166177,-0.1636108,-1.682716,-2.871549,-1.263463,0.2748375,0.1834728,-0.03249071,0.07484461,-0.08449122,-0.02156581,172.17.160.76,10.64.29.0,2,unknown,2,2014-11-15 17:54:19.335,8,2014-11-15 17:52:35.410,3
2014-11-15 17:54:20.552,5156,171.8667,40.10466,-88.22183,235.6079,0.35,210.9375,8,30,1416095660,0.04499817,1.05542,0.3410645,-20.01464,39.31451,-5.337158,136.0102,139.0925,10,0.1661187,0.1552809,-0.2524371,-1.659377,-2.844715,-1.272157,0.2583417,0.1575867,-0.2246778,0.08732115,0.1463283,0.09479535,172.17.160.76,10.64.29.0,2,unknown,2,2014-11-15 17:54:19.335,8,2014-11-15 17:52:35.410,3
2014-11-15 17:54:20.584,5157,171.9,40.10466,-88.22183,235.6079,0.35,210.9375,8,30,1416095660,0.05383301,0.9475555,0.2596588,-20.32473,39.21114,-5.437683,135.5191,138.6015,10,0.1811522,0.1337099,-0.2940047,-1.649426,-2.833112,-1.273768,0.2349753,0.2223211,-0.2369872,0.1024871,0.1629911,0.1039942,172.17.160.76,10.64.29.0,2,unknown,2,2014-11-15 17:54:19.335,8,2014-11-15 17:52:35.410,3
2014-11-15 17:54:20.618,5158,171.9333,40.10466,-88.22183,235.6079,0.35,210.9375,8,30,1416095660,-0.001449585,0.8356171,0.2004547,-20.46254,38.59093,-5.973938,135.7515,138.8338,10,0.1467258,-0.1710319,-0.267882,-1.638119,-2.820161,-1.275254,0.2500087,0.2007499,-0.278555,0.137014,0.09877548,0.06472319,172.17.160.76,10.64.29.0,2,unknown,2,2014-11-15 17:54:19.335,8,2014-11-15 17:52:35.410,3
2014-11-15 17:54:20.651,5159,171.9667,40.10466,-88.22183,235.6079,0.35,210.9375,8,30,1416095660,-0.2468414,0.7739868,0.2393341,-21.01382,38.52201,-6.108032,135.3597,138.442,10,0.1078785,-0.3220779,-0.1507075,-1.625565,-2.80711,-1.276637,0.2425197,0.06348619,-0.3047253,0.1490133,-0.009490596,-0.01420868,172.17.160.76,10.64.29.0,2,unknown,2,2014-11-15 17:54:19.335,8,2014-11-15 17:52:35.410,3
2014-11-15 17:54:20.684,5160,172,40.10466,-88.22183,235.6079,0.35,210.9375,8,30,1416095660,-0.2468414,0.7739868,0.2393341,-20.94491,38.52201,-6.041016,136.4204,139.5027,10,0.1078785,-0.3220779,-0.1507075,-1.614143,-2.796798,-1.27783,0.215582,-0.1039922,-0.2524323,0.09616373,-0.1217742,-0.07134223,172.17.160.76,10.64.29.0,2,unknown,2,2014-11-15 17:54:19.335,8,2014-11-15 17:52:35.410,3
2014-11-15 17:54:20.718,5161,172.0333,40.10466,-88.22183,235.6079,0.35,210.9375,8,30,1416095660,-0.2312775,0.9143982,0.2505035,-20.73818,38.24638,-5.5047,136.6422,139.7245,10,-0.04632356,0.1880639,-0.1453207,-1.577971,-2.767574,-1.285962,-0.02095064,0.2758487,-0.1996571,-0.0318257,-0.02907469,-0.06648843,172.17.160.76,10.64.29.0,2,unknown,2,2014-11-15 17:54:19.335,8,2014-11-15 17:52:35.410,3
2014-11-15 17:54:20.751,5162,172.0667,40.10466,-88.22183,235.6079,0.35,210.9375,8,30,1416095660,-0.2276917,0.8965912,0.2744293,-20.73818,38.10856,-5.236572,136.269,139.3513,10,-0.04632356,0.1880639,-0.1453207,-1.577971,-2.767574,-1.285962,-0.02095064,0.2758487,-0.1996571,-0.0318257,-0.02907469,-0.06648843,172.17.160.76,10.64.29.0,2,unknown,2,2014-11-15 17:54:19.335,8,2014-11-15 17:52:35.410,3
2014-11-15 17:54:20.784,5163,172.1,40.10466,-88.22183,235.6079,0.35,210.9375,8,30,1416095660,-0.2276917,0.8965912,0.2744293,-20.80709,38.03963,-5.303589,136.5838,139.6661,10,0.002462891,0.214221,-0.05513969,-1.577971,-2.767574,-1.285962,-0.02095064,0.2758487,-0.1996571,-0.0318257,-0.02907469,-0.06648843,172.17.160.76,10.64.29.0,2,unknown,2,2014-11-15 17:54:19.335,8,2014-11-15 17:52:35.410,3
2014-11-15 17:54:20.818,5164,172.1333,40.10466,-88.22183,235.6079,0.35,210.9375,8,30,1416095660,-0.0617981,0.8764648,0.1777496,-20.80709,37.48835,-5.0354,137.698,140.7803,10,-0.06949865,-0.09739713,0.04326811,-1.54834,-2.723587,-1.286627,0.06125897,-0.03163749,0.03406454,-0.1106477,-0.02675881,-0.01040247,172.17.160.76,10.64.29.0,2,unknown,2,2014-11-15 17:54:19.335,8,2014-11-15 17:52:35.410,3
2014-11-15 17:54:20.851,5165,172.1667,40.10466,-88.22183,235.6079,0.35,210.9375,8,30,1416095660,-0.0617981,0.8764648,0.1777496,-20.32471,37.21272,-5.102417,138.3407,141.423,10,-0.1515056,-0.131623,0.008366054,-1.549944,-2.725399,-1.287035,-0.0006456199,-0.03036043,0.05871711,-0.0265535,-0.08014149,-0.05337149,172.17.160.76,10.64.29.0,2,unknown,2,2014-11-15 17:54:19.335,8,2014-11-15 17:52:35.410,3
2014-11-15 17:54:20.884,5166,172.2,40.10466,-88.22183,235.6079,0.35,210.9375,8,30,1416095660,-0.08612061,0.9034271,0.305191,-20.08353,37.17828,-4.934875,139.4562,142.5385,10,-0.01073174,0.1694543,0.06674441,-1.55317,-2.725865,-1.282108,-0.04399218,0.2860043,0.01914744,-0.02377238,0.02568067,0.2149418,172.17.160.76,10.64.29.0,2,unknown,2,2014-11-15 17:54:19.335,8,2014-11-15 17:52:35.410,3
2014-11-15 17:54:20.918,5167,172.2333,40.10466,-88.22183,235.6079,0.35,210.9375,8,30,1416095660,-0.08612061,0.9034271,0.305191,-20.29026,37.24718,-5.135986,139.4865,142.5688,10,0.02519084,-0.04799762,0.1185389,-1.55317,-2.725865,-1.282108,-0.04399218,0.2860043,0.01914744,-0.02377238,0.02568067,0.2149418,172.17.160.76,10.64.29.0,2,unknown,2,2014-11-15 17:54:19.335,8,2014-11-15 17:52:35.410,3
2014-11-15 17:54:20.951,5168,172.2667,40.10466,-88.22183,235.6079,0.35,210.9375,8,30,1416095660,-0.03338623,0.9039307,0.2494202,-20.60036,37.41944,-5.169434,138.7599,141.8422,10,0.02519084,-0.04799762,0.1185389,-1.554859,-2.72486,-1.282717,0.05812046,0.2364902,0.08219322,-0.01076214,-0.006276798,0.1607671,172.17.160.76,10.64.29.0,2,unknown,2,2014-11-15 17:54:19.335,8,2014-11-15 17:52:35.410,3
2014-11-15 17:54:20.985,5169,172.3,40.10466,-88.22183,235.6079,0.35,210.9375,8,30,1416095660,-0.1472473,0.9024811,0.2910461,-20.91045,37.79845,-4.733704,137.523,140.6053,10,-0.08945345,0.161624,0.009677927,-1.58493,-2.768101,-1.284939,-0.09210049,0.1458356,0.02814252,-0.03308518,0.01702022,-0.01330315,172.17.160.76,10.64.29.0,2,unknown,2,2014-11-15 17:54:19.335,8,2014-11-15 17:52:35.410,3
2014-11-15 17:54:21.018,5170,172.3333,40.10466,-88.22183,235.6079,0.35,210.9375,8,30,1416095660,-0.1190338,0.9161072,0.4031677,-19.91124,37.90179,-4.16394,138.1028,141.1851,10,-0.04053198,0.1416658,0.04335706,-1.586179,-2.767161,-1.284655,-0.02060242,0.2286588,0.02512648,-0.008126755,-0.02039065,-0.02781802,172.17.160.76,10.64.29.0,2,unknown,2,2014-11-15 17:54:19.335,8,2014-11-15 17:52:35.410,3
2014-11-15 17:54:21.051,5171,172.3667,40.10466,-88.22183,235.6079,0.35,210.9375,8,30,1416095660,-0.1190338,0.9161072,0.4031677,-19.94571,38.07409,-3.728271,137.2325,140.3148,10,-0.08803159,-0.140012,0.168368,-1.587528,-2.766252,-1.285007,0.02831892,0.2087004,0.05880558,-0.04390033,-0.05695831,0.02875724,172.17.160.76,10.64.29.0,2,unknown,2,2014-11-15 17:54:19.335,8,2014-11-15 17:52:35.410,3
2014-11-15 17:54:21.084,5172,172.4,40.10466,-88.22183,235.6079,0.35,210.9375,8,30,1416095660,-0.1190338,0.9161072,0.4031677,-19.73897,38.07409,-3.862305,137.5625,140.6448,10,-0.08803159,-0.140012,0.168368,-1.590776,-2.768107,-1.28564,0.02269285,0.09233611,0.1272102,-0.07649933,-0.06908417,0.1156641,172.17.160.76,10.64.29.0,2,unknown,2,2014-11-15 17:54:19.335,8,2014-11-15 17:52:35.410,3
2014-11-15 17:54:21.118,5173,172.4333,40.10464,-88.22187,235.6084,0.46,222.5391,8,30,1416095661,-0.0138092,0.8193817,0.02864075,-19.84235,38.10856,-4.230957,137.228,140.3103,10,-0.1919753,-0.162578,-0.01287505,-1.606933,-2.799712,-1.28174,0.05076038,-0.08315237,-0.03410319,-0.09471217,-0.0390493,-0.08329358,172.17.160.76,10.64.29.0,2,unknown,2,2014-11-15 17:54:19.335,8,2014-11-15 17:52:35.410,3
2014-11-15 17:54:21.150,5174,172.4667,40.10464,-88.22187,235.6084,0.46,222.5391,8,30,1416095661,-0.0138092,0.8193817,0.02864075,-19.80789,38.07409,-4.465576,137.7886,140.8709,10,-0.3272647,-0.1648912,-0.04634806,-1.606933,-2.799712,-1.28174,0.05076038,-0.08315237,-0.03410319,-0.09471217,-0.0390493,-0.08329358,172.17.160.76,10.64.29.0,2,unknown,2,2014-11-15 17:54:19.335,8,2014-11-15 17:52:35.410,3
2014-11-15 17:54:21.184,5175,172.5,40.10464,-88.22187,235.6084,0.46,222.5391,8,30,1416095661,-0.0138092,0.8193817,0.02864075,-19.77343,38.17745,-3.96283,137.3269,140.4092,10,-0.3272647,-0.1648912,-0.04634806,-1.607714,-2.801374,-1.280994,-0.1231264,-0.09554531,0.002573018,0.01172366,-0.1597622,-0.2704057,172.17.160.76,10.64.29.0,2,unknown,2,2014-11-15 17:54:19.335,8,2014-11-15 17:52:35.410,3
2014-11-15 17:54:21.218,5176,172.5333,40.10464,-88.22187,235.6084,0.46,222.5391,8,30,1416095661,-0.1280823,0.9560699,0.4862213,-20.80709,38.45309,-3.359558,137.8212,140.9035,10,-0.5799156,-0.4208194,-0.4660351,-1.571438,-2.775701,-1.257944,-0.4252569,-0.4120984,-0.286686,0.1589289,-0.224485,-0.4000262,172.17.160.76,10.64.29.0,2,unknown,2,2014-11-15 17:54:19.335,8,2014-11-15 17:52:35.410,3
2014-11-15 17:54:21.251,5177,172.5667,40.10464,-88.22187,235.6084,0.46,222.5391,8,30,1416095661,-0.1402283,1.118225,0.4511566,-21.63401,38.38418,-3.29248,137.5015,140.5838,10,-0.5360799,-0.2135621,-0.4555545,-1.559266,-2.772354,-1.24608,-0.5110682,-0.3537882,-0.4505873,0.02221719,-0.1140317,0.004617463,172.17.160.76,10.64.29.0,2,unknown,2,2014-11-15 17:54:19.335,8,2014-11-15 17:52:35.410,3
2014-11-15 17:54:21.284,5178,172.6,40.10464,-88.22187,235.6084,0.46,222.5391,8,30,1416095661,-0.007843018,0.8554077,0.2261047,-22.94332,38.59093,-3.024353,138.4251,141.5074,10,-0.5706262,-0.3838648,-0.3554811,-1.520988,-2.749712,-1.216086,-0.4804839,-0.3508483,-0.3402924,0.132101,-0.115207,-0.2903799,172.17.160.76,10.64.29.0,2,unknown,2,2014-11-15 17:54:19.335,8,2014-11-15 17:52:35.410,3
2014-11-15 17:54:21.318,5179,172.6333,40.10464,-88.22187,235.6084,0.46,222.5391,8,30,1416095661,-0.1369019,0.9438477,0.568222,-23.39122,38.83212,-3.124878,138.6072,141.6895,10,-0.600444,-0.375413,-0.3638168,-1.520988,-2.749712,-1.216086,-0.4804839,-0.3508483,-0.3402924,0.132101,-0.115207,-0.2903799,172.17.160.76,10.64.29.0,2,unknown,2,2014-11-15 17:54:19.335,8,2014-11-15 17:52:35.410,3
2014-11-15 17:54:21.351,5180,172.6667,40.10464,-88.22187,235.6084,0.46,222.5391,8,30,1416095661,-0.1369019,0.9438477,0.568222,-23.8736,38.96993,-2.856689,138.8579,141.9402,10,-0.600444,-0.375413,-0.3638168,-1.51753,-2.749737,-1.210139,-0.5017797,-0.3168345,-0.3400336,0.1269269,-0.08025749,-0.1000359,172.17.160.76,10.64.29.0,2,unknown,2,2014-11-15 17:54:19.335,8,2014-11-15 17:52:35.410,3
2014-11-15 17:54:21.385,5181,172.7,40.10464,-88.22187,235.6084,0.46,222.5391,8,30,1416095661,-0.1934052,0.9404297,0.4912567,-25.07953,39.7624,-0.7451172,137.5773,140.6596,10,-0.7835984,-0.5493723,-0.4765642,-1.491482,-2.755383,-1.164877,-0.7489009,-0.6036701,-0.4818782,0.03615773,-0.08667812,-0.2407638,172.17.160.76,10.64.29.0,2,unknown,2,2014-11-15 17:54:19.335,8,2014-11-15 17:52:35.410,3
2014-11-15 17:54:21.418,5182,172.7333,40.10464,-88.22187,235.6084,0.46,222.5391,8,30,1416095661,-0.1466522,0.9712524,0.4251862,-25.66527,39.65903,0.02581787,138.3918,141.4741,10,-0.7867655,-0.3886942,-0.4459847,-1.491482,-2.755383,-1.164877,-0.7489009,-0.6036701,-0.4818782,0.03615773,-0.08667812,-0.2407638,172.17.160.76,10.64.29.0,2,unknown,2,2014-11-15 17:54:19.335,8,2014-11-15 17:52:35.410,3
2014-11-15 17:54:21.450,5183,172.7667,40.10464,-88.22187,235.6084,0.46,222.5391,8,30,1416095661,-0.03823853,0.7781067,0.2785339,-27.25023,39.38338,0.7631836,137.4587,140.541,10,-1.128862,-0.4217995,-0.4894603,-1.460792,-2.757317,-1.103581,-0.8142068,-0.4496495,-0.351322,-0.00163646,-0.2082558,-0.1530734,172.17.160.76,10.64.29.0,2,unknown,2,2014-11-15 17:54:19.335,8,2014-11-15 17:52:35.410,3
2014-11-15 17:54:21.484,5184,172.8,40.10464,-88.22187,235.6084,0.46,222.5391,8,30,1416095661,-0.04748535,0.8950348,0.4822845,-27.93933,39.65902,1.366455,138.7119,141.7942,10,-1.051786,-0.4779959,-0.6099923,-1.460626,-2.764955,-1.082031,-1.060022,-0.3548274,-0.4740956,0.1344549,-0.1048064,-0.1580911,172.17.160.76,10.64.29.0,2,unknown,2,2014-11-15 17:54:19.335,8,2014-11-15 17:52:35.410,3
2014-11-15 17:54:21.518,5185,172.8333,40.10464,-88.22187,235.6084,0.46,222.5391,8,30,1416095661,-0.1092224,0.9545288,0.5592194,-29.48981,39.34893,2.606689,139.2523,142.3346,10,-0.9683999,-0.6234061,-0.7246488,-1.457353,-2.765954,-1.070607,-0.9829459,-0.4110239,-0.5946277,0.1284605,0.01754283,0.03613331,172.17.160.76,10.64.29.0,2,unknown,2,2014-11-15 17:54:19.335,8,2014-11-15 17:52:35.410,3
2014-11-15 17:54:21.551,5186,172.8667,40.10464,-88.22187,235.6084,0.46,222.5391,8,30,1416095661,-0.1712799,0.7551727,0.4730072,-30.62683,39.17664,4.450195,139.8445,142.9268,10,-1.261044,-0.6080641,-0.5398358,-1.426167,-2.766483,-1.022225,-0.8798812,-0.4794183,-0.4987791,-0.06704933,-0.1517321,-0.2116962,172.17.160.76,10.64.29.0,2,unknown,2,2014-11-15 17:54:19.335,8,2014-11-15 17:52:35.410,3
2014-11-15 17:54:21.584,5187,172.9,40.10464,-88.22187,235.6084,0.46,222.5391,8,30,1416095661,-0.1651917,0.8385468,0.6131744,-32.24623,38.93546,5.891479,140.6346,143.7169,10,-1.237399,-0.6309098,-0.609041,-1.424917,-2.770489,-1.010325,-1.143225,-0.5175485,-0.4990553,-0.01039446,-0.2173356,-0.351768,172.17.160.76,10.64.29.0,2,unknown,2,2014-11-15 17:54:19.335,8,2014-11-15 17:52:35.410,3
2014-11-15 17:54:21.618,5188,172.9333,40.10464,-88.22187,235.6084,0.46,222.5391,8,30,1416095661,-0.1651917,0.8385468,0.6131744,-33.24544,38.76318,7.131592,140.5766,143.6589,10,-1.146643,-0.5919185,-0.6463274,-1.421812,-2.778823,-0.9843186,-1.16856,-0.5639389,-0.5936767,0.02511349,-0.07772246,-0.04440486,172.17.160.76,10.64.29.0,2,unknown,2,2014-11-15 17:54:19.335,8,2014-11-15 17:52:35.410,3
2014-11-15 17:54:21.652,5189,172.9667,40.10464,-88.22187,235.6084,0.46,222.5391,8,30,1416095661,-0.185379,0.8910217,0.7971802,-35.2783,38.65981,9.444336,141.5556,144.6379,10,-1.013457,-0.518346,-0.6039793,-1.418306,-2.781334,-0.9717359,-1.077804,-0.5249476,-0.6309631,0.03358072,0.01268097,0.08550479,172.17.160.76,10.64.29.0,2,unknown,2,2014-11-15 17:54:19.335,8,2014-11-15 17:52:35.410,3
2014-11-15 17:54:21.685,5190,173,40.10464,-88.22187,235.6084,0.46,222.5391,8,30,1416095661,-0.1917419,0.7714386,0.7882385,-37.31115,37.93627,11.68994,143.2451,146.3275,10,-1.161069,-1.018997,-0.9202617,-1.373172,-2.788657,-0.8312186,-1.266194,-0.652303,-0.7636139,0.0872255,-0.01917924,-0.03627275,172.17.160.76,10.64.29.0,2,unknown,2,2014-11-15 17:54:19.335,8,2014-11-15 17:52:35.410,3
2014-11-15 17:54:21.718,5191,173.0333,40.10464,-88.22187,235.6084,0.46,222.5391,8,30,1416095661,-0.22612,0.6883698,0.6882477,-37.31115,37.93627,11.68994,143.2451,146.3275,10,-1.114386,-0.9545851,-0.8298714,-1.36755,-2.79263,-0.8169734,-1.17754,-0.859307,-0.8733071,0.1233967,0.02971142,0.06971177,172.17.160.76,10.64.29.0,2,unknown,2,2014-11-15 17:54:19.335,8,2014-11-15 17:52:35.410,3
2014-11-15 17:54:21.750,5192,173.0667,40.10464,-88.22187,235.6084,0.46,222.5391,8,30,1416095661,-0.2179108,0.5224304,0.5506744,-39.86084,36.8337,15.578,260.8172,263.8995,10,-1.164903,-0.9152038,-0.6829903,-1.354348,-2.801596,-0.7907185,-1.045549,-0.8876162,-0.8145075,0.008430689,-0.02248904,0.02517472,172.17.160.76,10.64.29.0,2,unknown,2,2014-11-15 17:54:19.335,8,2014-11-15 17:52:35.410,3
2014-11-15 17:54:21.784,5193,173.1,40.10464,-88.22187,235.6084,0.46,222.5391,8,30,1416095661,-0.3440552,0.4818726,0.5684204,-41.65252,35.73113,18.2594,278.1645,281.2468,10,-1.117615,-0.5095053,-0.7065066,-1.324855,-2.829093,-0.7087092,-1.093963,-0.7624692,-0.9898735,-0.1102201,0.1323335,0.1697637,172.17.160.76,10.64.29.0,2,unknown,2,2014-11-15 17:54:19.335,8,2014-11-15 17:52:35.410,3
2014-11-15 17:54:21.818,5194,173.1333,40.10464,-88.22187,235.6084,0.46,222.5391,8,30,1416095661,-0.2859344,0.4315796,0.7055664,-42.30717,35.35212,19.16437,278.3846,281.4669,10,-1.117615,-0.5095053,-0.7065066,-1.31769,-2.831179,-0.6962048,-1.007881,-0.6308938,-0.8674325,-0.1733464,0.08664075,-0.02789805,172.17.160.76,10.64.29.0,2,unknown,2,2014-11-15 17:54:19.335,8,2014-11-15 17:52:35.410,3
2014-11-15 17:54:21.851,5195,173.1667,40.10464,-88.22187,235.6084,0.46,222.5391,8,30,1416095661,-0.4163818,0.4225006,0.6490479,-43.44419,34.2151,20.73972,278.3722,281.4545,10,-1.13283,-0.3214015,-0.5621589,-1.302562,-2.831733,-0.6349254,-1.014655,-0.1093617,-0.6099052,-0.1320174,-0.06360696,0.239849,172.17.160.76,10.64.29.0,2,unknown,2,2014-11-15 17:54:19.335,8,2014-11-15 17:52:35.410,3
2014-11-15 17:54:21.884,5196,173.2,40.10464,-88.22187,235.6084,0.46,222.5391,8,30,1416095661,-0.3131866,0.43367,0.8058319,-44.40894,33.25036,22.08044,278.5234,281.6057,10,-1.420905,-0.07474215,-0.4196657,-1.295099,-2.834073,-0.5998918,-1.104875,-0.1757739,-0.4039897,-0.1665382,-0.1420525,-0.1376274,172.17.160.76,10.64.29.0,2,unknown,2,2014-11-15 17:54:19.335,8,2014-11-15 17:52:35.410,3
2014-11-15 17:54:21.918,5197,173.2333,40.10464,-88.22187,235.6084,0.46,222.5391,8,30,1416095661,-0.2998047,0.5838318,0.8744049,-45.33922,32.80243,22.98541,278.6055,281.6878,10,-1.302538,-0.2601253,-0.4784052,-1.293566,-2.837909,-0.5432417,-1.460348,-0.2888634,-0.6282884,-0.07093248,0.1357047,0.131391,172.17.160.76,10.64.29.0,2,unknown,2,2014-11-15 17:54:19.335,8,2014-11-15 17:52:35.410,3
2014-11-15 17:54:21.951,5198,173.2667,40.10464,-88.22187,235.6084,0.46,222.5391,8,30,1416095661,-0.2998047,0.5838318,0.8744049,-45.68378,32.25114,23.92389,277.6481,280.7304,10,-1.302538,-0.2601253,-0.4784052,-1.291451,-2.839671,-0.5278654,-1.38575,-0.2781869,-0.6168353,-0.04478544,0.193743,0.09026161,172.17.160.76,10.64.29.0,2,unknown,2,2014-11-15 17:54:19.335,8,2014-11-15 17:52:35.410,3
2014-11-15 17:54:21.986,5199,173.3,40.10464,-88.22187,235.6084,0.46,222.5391,8,30,1416095661,-0.2307129,0.4812622,0.7889709,-46.64853,31.69985,25.59979,279.8306,282.9129,10,-1.217372,-0.03949841,-0.3830904,-1.291451,-2.839671,-0.5278654,-1.38575,-0.2781869,-0.6168353,-0.04478544,0.193743,0.09026161,172.17.160.76,10.64.29.0,2,unknown,2,2014-11-15 17:54:19.335,8,2014-11-15 17:52:35.410,3
2014-11-15 17:54:22.018,5200,173.3333,40.10464,-88.22187,235.6084,0.46,222.5391,8,30,1416095661,-0.3178101,0.4248047,0.9811249,-47.57882,30.35609,27.17517,279.8717,282.954,10,-1.096642,-0.4277356,-0.5702848,-1.263988,-2.838065,-0.3914035,-0.9892803,-0.1354707,-0.5475109,0.02742939,-0.009217445,0.128058,172.17.160.76,10.64.29.0,6,unknown,2,2014-11-15 17:54:19.335,8,2014-11-15 17:52:35.410,3
2014-11-15 17:54:22.052,5201,173.3667,40.10464,-88.22187,235.6084,0.46,222.5391,8,30,1416095661,-0.3399658,0.449585,0.9044647,-48.47466,29.25352,28.11365,279.349,282.4313,10,-1.221392,-0.6426703,-0.6176547,-1.263988,-2.838065,-0.3914035,-0.9892803,-0.1354707,-0.5475109,0.02742939,-0.009217445,0.128058,172.17.160.76,10.64.29.0,6,unknown,2,2014-11-15 17:54:19.335,8,2014-11-15 17:52:35.410,3
2014-11-15 17:54:22.085,5202,173.4,40.10464,-88.22187,235.6084,0.46,222.5391,8,30,1416095661,-0.3575745,0.2550049,1.084412,-50.05961,26.56602,30.79504,278.692,281.7743,10,-1.179625,-0.01931165,-0.5221796,-1.253743,-2.855194,-0.2970492,-1.037455,0.09181307,-0.4230019,-0.04928507,-0.05425081,0.1875874,172.17.160.76,10.64.29.0,6,unknown,2,2014-11-15 17:54:19.335,8,2014-11-15 17:52:35.410,3
2014-11-15 17:54:22.117,5203,173.4333,40.10464,-88.22187,235.6084,0.46,222.5391,8,30,1416095661,-0.4058075,0.2507477,0.9419403,-50.64534,25.63573,31.633,278.5596,281.6419,10,-1.179625,-0.01931165,-0.5221796,-1.253743,-2.855194,-0.2970492,-1.037455,0.09181307,-0.4230019,-0.04928507,-0.05425081,0.1875874,172.17.160.76,10.64.29.0,6,unknown,2,2014-11-15 17:54:19.335,8,2014-11-15 17:52:35.410,3
2014-11-15 17:54:22.150,5204,173.4667,40.10464,-88.22189,235.6864,0.63,222.8906,8,30,1416095662,-0.4058075,0.2507477,0.9419403,-50.64534,25.63573,31.633,278.5596,281.6419,10,-1.291517,-0.08750188,-0.5539641,-1.253743,-2.855194,-0.2970492,-1.037455,0.09181307,-0.4230019,-0.04928507,-0.05425081,0.1875874,172.17.160.76,10.64.29.0,6,unknown,2,2014-11-15 17:54:19.335,8,2014-11-15 17:52:35.410,3
2014-11-15 17:54:22.185,5205,173.5,40.10464,-88.22189,235.6864,0.63,222.8906,8,30,1416095662,-0.2310486,0.04129028,0.8603973,-52.40255,23.05158,32.13571,278.7488,281.8311,10,-1.327651,0.09960596,-0.5432902,-1.248815,-2.830797,-0.1941543,-1.181964,0.4483992,-0.4895796,0.03900775,0.0009566472,0.2119926,172.17.160.76,10.64.29.0,6,unknown,2,2014-11-15 17:54:19.335,8,2014-11-15 17:52:35.410,3
2014-11-15 17:54:22.218,5206,173.5333,40.10464,-88.22189,235.6864,0.63,222.8906,8,30,1416095662,-0.255127,-0.03245544,0.7326965,-53.40175,20.67417,32.30328,278.5108,281.5931,10,-1.327651,0.09960596,-0.5432902,-1.247347,-2.827213,-0.1807854,-1.241565,0.294879,-0.5612842,0.0728183,-0.03101377,0.04481107,172.17.160.76,10.64.29.0,6,unknown,2,2014-11-15 17:54:19.335,8,2014-11-15 17:52:35.410,3
2014-11-15 17:54:22.251,5207,173.5667,40.10464,-88.22189,235.6864,0.63,222.8906,8,30,1416095662,-0.2753754,0.1226196,1.274857,-53.91858,19.60606,32.2027,278.6577,281.74,10,-1.222156,0.1465074,-0.5169012,-1.245315,-2.821692,-0.1395918,-1.28892,0.1842397,-0.4406806,0.08210471,-0.1891572,-0.2043761,172.17.160.76,10.64.29.0,6,unknown,2,2014-11-15 17:54:19.335,8,2014-11-15 17:52:35.410,3
2014-11-15 17:54:22.285,5208,173.6,40.10464,-88.22189,235.6864,0.63,222.8906,8,30,1416095662,-0.3571472,0.1477814,1.150284,-54.88334,17.74548,33.00714,278.9826,282.0649,10,-1.222156,0.1465074,-0.5169012,-1.245015,-2.819863,-0.1263883,-1.23132,0.1809351,-0.45259,0.07950883,-0.1381675,-0.08229721,172.17.160.76,10.64.29.0,6,unknown,2,2014-11-15 17:54:19.335,8,2014-11-15 17:52:35.410,3
2014-11-15 17:54:22.319,5209,173.6333,40.10464,-88.22189,235.6864,0.63,222.8906,8,30,1416095662,-0.3571472,0.1477814,1.150284,-56.08926,15.91936,33.57697,279.3152,282.3975,10,-1.214728,0.0486485,-0.5301821,-1.244076,-2.817632,-0.113701,-1.153326,0.2134693,-0.501539,0.09027052,-0.07967326,0.1144135,172.17.160.76,10.64.29.0,6,unknown,2,2014-11-15 17:54:19.335,8,2014-11-15 17:52:35.410,3
2014-11-15 17:54:22.351,5210,173.6667,40.10464,-88.22189,235.6864,0.63,222.8906,8,30,1416095662,-0.291153,-0.05107117,0.8810883,-57.19182,15.02354,34.31439,280.5232,283.6055,10,-1.202935,0.3156911,-0.4842378,-1.248395,-2.810507,0.02918395,-1.237829,0.179017,-0.4186806,-0.03708321,-0.001337767,-0.02901224,172.17.160.76,10.64.29.0,6,unknown,2,2014-11-15 17:54:19.335,8,2014-11-15 17:52:35.410,3
2014-11-15 17:54:22.384,5211,173.7,40.10464,-88.22189,235.6864,0.63,222.8906,8,30,1416095662,-0.3174438,-0.04180908,0.9300537,-57.57083,14.36888,34.21381,280.9083,283.9906,10,-1.202935,0.3156911,-0.4842378,-1.248335,-2.807551,0.0419549,-1.190785,0.3276936,-0.4265657,0.03642274,-0.009128576,-0.06280527,172.17.160.76,10.64.29.0,6,unknown,2,2014-11-15 17:54:19.335,8,2014-11-15 17:52:35.410,3
2014-11-15 17:54:22.418,5212,173.7333,40.10464,-88.22189,235.6864,0.63,222.8906,8,30,1416095662,-0.3174438,-0.04180908,0.9300537,-58.08765,13.78314,34.24734,281.3853,284.4676,10,-1.135738,0.2868235,-0.5037481,-1.248335,-2.807551,0.0419549,-1.190785,0.3276936,-0.4265657,0.03642274,-0.009128576,-0.06280527,172.17.160.76,10.64.29.0,6,unknown,2,2014-11-15 17:54:19.335,8,2014-11-15 17:52:35.410,3
2014-11-15 17:54:22.450,5213,173.7667,40.10464,-88.22189,235.6864,0.63,222.8906,8,30,1416095662,-0.3803864,-0.04229736,0.9556427,-58.74229,12.23265,34.54901,282.0177,285.1,10,-1.084748,0.1988897,-0.4661888,-1.24781,-2.803856,0.05430919,-1.134115,0.382601,-0.4689481,0.04750844,0.0002663864,-0.08121499,172.17.160.76,10.64.29.0,6,unknown,2,2014-11-15 17:54:19.335,8,2014-11-15 17:52:35.410,3
2014-11-15 17:54:22.485,5214,173.8,40.10464,-88.22189,235.6864,0.63,222.8906,8,30,1416095662,-0.5522461,-0.01364136,1.206345,-59.15575,11.06116,34.61603,270.6933,273.7756,11,-1.007238,0.1155285,-0.3841224,-1.24683,-2.800266,0.06613944,-1.066917,0.3537332,-0.4884585,0.01656199,0.02428215,-0.01019735,172.17.160.76,10.64.29.0,6,unknown,2,2014-11-15 17:54:19.335,8,2014-11-15 17:52:35.410,3
2014-11-15 17:54:22.517,5215,173.8333,40.10464,-88.22189,235.6864,0.63,222.8906,8,30,1416095662,-0.5522461,-0.01364136,1.206345,-59.39694,10.61324,34.38141,269.4415,272.5238,11,-0.9564397,0.147309,-0.2525215,-1.245914,-2.797414,0.07738204,-1.015927,0.2657993,-0.4508991,-0.04397235,0.03500748,0.01710683,172.17.160.76,10.64.29.0,6,unknown,2,2014-11-15 17:54:19.335,8,2014-11-15 17:52:35.410,3
2014-11-15 17:54:22.551,5216,173.8667,40.10464,-88.22189,235.6864,0.63,222.8906,8,30,1416095662,-0.5741119,-0.04072571,1.094254,-59.91378,10.16533,33.87863,269.9298,273.0121,11,-0.9564397,0.147309,-0.2525215,-1.245487,-2.795488,0.08775549,-0.9384171,0.1824379,-0.3688328,-0.1214044,0.06495307,0.08989619,172.17.160.76,10.64.29.0,6,unknown,2,2014-11-15 17:54:19.335,8,2014-11-15 17:52:35.410,3
2014-11-15 17:54:22.585,5217,173.9,40.10464,-88.22189,235.6864,0.63,222.8906,8,30,1416095662,-0.4713898,-0.1261444,0.942337,-60.43059,9.30394,33.30887,270.3921,273.4744,11,-1.159458,0.195419,-0.08485524,-1.25078,-2.788182,0.1167957,-1.074689,0.2496488,-0.05907739,-0.192452,0.01519675,0.07362624,172.17.160.76,10.64.29.0,6,unknown,2,2014-11-15 17:54:19.335,8,2014-11-15 17:52:35.410,3
2014-11-15 17:54:22.618,5218,173.9333,40.10464,-88.22189,235.6864,0.63,222.8906,8,30,1416095662,-0.3821106,-0.1763,0.8487091,-61.11971,8.683739,32.90668,270.2441,273.3264,11,-1.159233,0.2055018,-0.1569838,-1.254007,-2.785197,0.1271951,-1.090638,0.262328,-0.06956575,-0.1253101,0.0007080181,0.01274718,172.17.160.76,10.64.29.0,6,unknown,2,2014-11-15 17:54:19.335,8,2014-11-15 17:52:35.410,3
2014-11-15 17:54:22.660,5219,173.9667,40.10464,-88.22189,235.6864,0.63,222.8906,8,30,1416095662,-0.3406525,-0.2199707,0.8663788,-61.53316,8.33918,32.83963,270.0695,273.1518,11,-1.073907,0.2128095,-0.1689411,-1.254007,-2.785197,0.1271951,-1.090638,0.262328,-0.06956575,-0.1253101,0.0007080181,0.01274718,172.17.160.76,10.64.29.0,6,unknown,2,2014-11-15 17:54:19.335,8,2014-11-15 17:52:35.410,3
2014-11-15 17:54:22.701,5220,174,40.10464,-88.22189,235.6864,0.63,222.8906,8,30,1416095662,-0.3570404,-0.2313538,0.8545532,-62.18781,7.615623,33.40939,270.0122,273.0945,11,-1.073907,0.2128095,-0.1689411,-1.256704,-2.782153,0.1378889,-1.090413,0.2724106,-0.1416943,-0.03369968,-0.03884771,-0.07849998,172.17.160.76,10.64.29.0,6,unknown,2,2014-11-15 17:54:19.335,8,2014-11-15 17:52:35.410,3
2014-11-15 17:54:22.718,5221,174.0333,40.10464,-88.22189,235.6864,0.63,222.8906,8,30,1416095662,-0.3570404,-0.2313538,0.8545532,-62.18781,7.615623,33.40939,270.0122,273.0945,11,-1.073907,0.2128095,-0.1689411,-1.256704,-2.782153,0.1378889,-1.090413,0.2724106,-0.1416943,-0.03369968,-0.03884771,-0.07849998,172.17.160.76,10.64.29.0,6,unknown,2,2014-11-15 17:54:19.335,8,2014-11-15 17:52:35.410,3
2014-11-15 17:54:22.751,5222,174.0667,40.10464,-88.22189,235.6864,0.63,222.8906,8,30,1416095662,-0.3741302,-0.136795,1.065506,-62.429,6.478584,34.38141,269.9222,273.0045,11,-0.7287855,0.343225,-0.0432303,-1.263018,-2.771855,0.1649662,-0.75687,0.3705222,-0.07343037,-0.02030513,-0.0339316,-0.01314729,172.17.160.76,10.64.29.0,6,unknown,2,2014-11-15 17:54:19.335,8,2014-11-15 17:52:35.410,3
2014-11-15 17:54:22.784,5223,174.1,40.10464,-88.22189,235.6864,0.63,222.8906,8,30,1416095662,-0.3741302,-0.136795,1.065506,-62.46346,6.581955,34.34793,270.2727,273.355,11,-0.7639816,0.2666314,-0.05730111,-1.263018,-2.771855,0.1649662,-0.75687,0.3705222,-0.07343037,-0.02030513,-0.0339316,-0.01314729,172.17.160.76,10.64.29.0,6,unknown,2,2014-11-15 17:54:19.335,8,2014-11-15 17:52:35.410,3
2014-11-15 17:54:22.817,5224,174.1333,40.10464,-88.22189,235.6864,0.63,222.8906,8,30,1416095662,-0.4399414,-0.3253632,0.9582977,-62.63575,6.20295,33.71112,270.6618,273.7441,11,-0.3448029,0.08490104,-0.1765908,-1.274703,-2.731097,0.3430642,-0.2918569,0.109988,-0.2124143,-0.01232767,0.00887493,0.06836189,172.17.160.76,10.64.29.0,6,unknown,2,2014-11-15 17:54:19.335,8,2014-11-15 17:52:35.410,3
2014-11-15 17:54:22.851,5225,174.1667,40.10464,-88.22189,235.6864,0.63,222.8906,8,30,1416095662,-0.3907928,-0.2963409,0.9208832,-62.73912,5.479393,33.7446,270.5233,273.6056,11,-0.3481202,0.03729331,-0.1492305,-1.274703,-2.731097,0.3430642,-0.2918569,0.109988,-0.2124143,-0.01232767,0.00887493,0.06836189,172.17.160.76,10.64.29.0,6,unknown,2,2014-11-15 17:54:19.335,8,2014-11-15 17:52:35.410,3
2014-11-15 17:54:22.885,5226,174.2,40.10464,-88.22189,235.6864,0.63,222.8906,8,30,1416095662,-0.4297638,-0.331665,0.9719391,-63.25595,4.411278,33.4429,270.3921,273.4744,11,-0.1150518,-0.1108685,-0.05535008,-1.274526,-2.728533,0.3608559,-0.1911202,-0.05266536,-0.07565559,-0.007099564,0.03770648,0.02736873,172.17.160.76,10.64.29.0,6,unknown,2,2014-11-15 17:54:19.335,8,2014-11-15 17:52:35.410,3
2014-11-15 17:54:22.917,5227,174.2333,40.10464,-88.22189,235.6864,0.63,222.8906,8,30,1416095662,-0.4034576,-0.3409119,0.9501038,-63.25595,4.411278,33.4429,270.3921,273.4744,11,-0.091568,-0.1130853,-0.06606451,-1.274483,-2.729095,0.3622331,-0.1016421,-0.05359707,-0.05264299,-0.02198258,0.03771294,0.06033413,172.17.160.76,10.64.29.0,6,unknown,2,2014-11-15 17:54:19.335,8,2014-11-15 17:52:35.410,3
2014-11-15 17:54:22.951,5228,174.2667,40.10464,-88.22189,235.6864,0.63,222.8906,8,30,1416095662,-0.3715515,-0.3162384,0.9312286,-63.63495,4.032265,33.34235,270.3271,273.4094,11,0.07551473,-0.297686,-0.01777261,-1.270236,-2.736355,0.3647253,0.04121348,-0.1931417,-0.09000334,0.04399434,0.04169025,0.01364954,172.17.160.76,10.64.29.0,6,unknown,2,2014-11-15 17:54:19.335,8,2014-11-15 17:52:35.410,3
2014-11-15 17:54:22.984,5229,174.3,40.10464,-88.22189,235.6864,0.63,222.8906,8,30,1416095662,-0.37883,-0.339447,0.9095917,-63.94505,4.273445,33.50995,270.1227,273.205,11,0.1170017,-0.2804495,0.01613023,-1.268599,-2.741533,0.3629972,0.1443273,-0.2307842,-0.002484739,-0.007457186,0.03883931,0.07020881,172.17.160.76,10.64.29.0,6,unknown,2,2014-11-15 17:54:19.335,8,2014-11-15 17:52:35.410,3
2014-11-15 17:54:23.018,5230,174.3333,40.10464,-88.22189,235.6864,0.63,222.8906,8,30,1416095662,-0.3581085,-0.3445587,0.8884735,-63.66941,3.99781,33.711,269.9447,273.027,11,0.1170017,-0.2804495,0.01613023,-1.268114,-2.743888,0.3613854,0.1709045,-0.2146429,0.02616072,-0.04152236,0.03127437,0.07544932,172.17.160.76,10.64.29.0,6,unknown,2,2014-11-15 17:54:19.335,8,2014-11-15 17:52:35.410,3
2014-11-15 17:54:23.051,5231,174.3667,40.10464,-88.22189,235.6864,0.63,222.8906,8,30,1416095662,-0.3569031,-0.3721313,0.8992615,-63.15259,4.238998,34.14676,269.7172,272.7995,11,0.2591309,-0.2206951,-0.08280513,-1.261682,-2.758828,0.3503217,0.2383117,-0.1940005,-0.05040987,-0.01180802,0.03924486,0.009276245,172.17.160.76,10.64.29.0,6,unknown,2,2014-11-15 17:54:19.335,8,2014-11-15 17:52:35.410,3
2014-11-15 17:54:23.085,5232,174.4,40.10464,-88.22189,235.6864,0.63,222.8906,8,30,1416095662,-0.3802643,-0.3575897,0.9350433,-62.84249,4.135628,34.31433,269.5493,272.6316,11,0.3243557,-0.2297317,-0.1499703,-1.258298,-2.76358,0.3451856,0.3279423,-0.1537944,-0.06751753,-0.0109885,-7.535915e-06,0.01116494,172.17.160.76,10.64.29.0,6,unknown,2,2014-11-15 17:54:19.335,8,2014-11-15 17:52:35.410,3
2014-11-15 17:54:23.130,5233,174.4333,40.10464,-88.22189,235.6864,0.63,222.8906,8,30,1416095662,-0.3802643,-0.3575897,0.9350433,-62.36013,3.99781,34.58249,269.3659,272.4482,11,0.3243557,-0.2297317,-0.1499703,-1.255987,-2.765793,0.342244,0.3611052,-0.1455819,-0.1036889,-0.01117217,-0.03652958,0.02299576,172.17.160.76,10.64.29.0,6,unknown,2,2014-11-15 17:54:19.335,8,2014-11-15 17:52:35.410,3
2014-11-15 17:54:23.152,5234,174.4667,40.10464,-88.22189,235.6864,0.63,222.8906,8,30,1416095662,-0.4238586,-0.2970276,0.9361877,-62.18785,4.721359,34.68307,268.4902,271.5725,11,0.3520462,-0.1679309,-0.1253345,-1.250191,-2.771105,0.3357334,0.4315546,-0.1841665,-0.1434308,-0.03840878,-0.02812804,0.05493549,172.17.160.76,10.64.29.0,6,unknown,2,2014-11-15 17:54:19.335,8,2014-11-15 17:52:35.410,3
2014-11-15 17:54:23.186,5235,174.5,40.10464,-88.22189,235.6864,0.63,222.8906,8,30,1416095662,-0.511322,-0.3464813,0.8998108,-62.18785,4.721359,34.68307,268.4902,271.5725,11,0.3430016,-0.06230572,0.07269125,-1.242131,-2.777102,0.3246719,0.4313449,-0.0537626,-0.04084109,-0.08600914,0.02197027,0.05069461,172.17.160.76,10.64.29.0,6,unknown,2,2014-11-15 17:54:19.335,8,2014-11-15 17:52:35.410,3
2014-11-15 17:54:23.233,5236,174.5333,40.10463,-88.22192,235.4543,0.63,217.2656,6,30,1416095663,-0.3413696,-0.256546,1.039246,-62.05003,5.89283,33.74451,268.5712,271.6535,11,0.7968138,0.183152,0.2431831,-1.24248,-2.765865,0.2652701,0.8015874,0.3034923,0.2961433,0.06515884,-0.01599784,0.1545893,172.17.160.76,10.64.29.0,6,unknown,2,2014-11-15 17:54:19.335,8,2014-11-15 17:52:35.410,3
2014-11-15 17:54:23.252,5237,174.5667,40.10463,-88.22192,235.4543,0.63,217.2656,6,30,1416095663,-0.3413696,-0.256546,1.039246,-61.8433,6.16848,33.40936,268.5332,271.6155,11,0.7968138,0.183152,0.2431831,-1.241809,-2.763239,0.256463,0.8539202,0.2691592,0.2554302,0.04110168,-0.01022471,0.1745754,172.17.160.76,10.64.29.0,6,unknown,2,2014-11-15 17:54:19.335,8,2014-11-15 17:52:35.410,3
2014-11-15 17:54:23.284,5238,174.6,40.10463,-88.22192,235.4543,0.63,217.2656,6,30,1416095663,-0.3270111,-0.2451477,1.022354,-61.8433,6.16848,33.40936,268.5332,271.6155,11,0.7968138,0.183152,0.2431831,-1.241809,-2.763239,0.256463,0.8539202,0.2691592,0.2554302,0.04110168,-0.01022471,0.1745754,172.17.160.76,10.64.29.0,6,unknown,2,2014-11-15 17:54:19.335,8,2014-11-15 17:52:35.410,3
2014-11-15 17:54:23.318,5239,174.6333,40.10463,-88.22192,235.4543,0.63,217.2656,6,30,1416095663,-0.4719696,-0.1630402,1.008423,-60.36174,7.512245,32.50443,268.5986,271.6809,11,1.294432,-0.2418182,0.5638953,-1.24235,-2.757432,0.1677614,1.325163,-0.179911,0.4784577,-0.03936999,0.07578907,0.2149613,172.17.160.76,10.64.29.0,6,unknown,2,2014-11-15 17:54:19.335,8,2014-11-15 17:52:35.410,3
2014-11-15 17:54:23.351,5240,174.6667,40.10463,-88.22192,235.4543,0.63,217.2656,6,30,1416095663,-0.4719696,-0.1630402,1.008423,-60.36174,7.512245,32.50443,268.5986,271.6809,11,1.294432,-0.2418182,0.5638953,-1.24235,-2.757432,0.1677614,1.325163,-0.179911,0.4784577,-0.03936999,0.07578907,0.2149613,172.17.160.76,10.64.29.0,6,unknown,2,2014-11-15 17:54:19.335,8,2014-11-15 17:52:35.410,3
2014-11-15 17:54:23.385,5241,174.7,40.10463,-88.22192,235.4543,0.63,217.2656,6,30,1416095663,-0.4046021,-0.05290222,1.005203,-59.32807,11.30231,31.76703,268.5977,271.68,11,1.611382,-0.201278,0.4642042,-1.236714,-2.760742,0.02454778,1.68662,-0.06747024,0.4818789,0.05952524,-0.1012939,0.1269387,172.17.160.76,10.64.29.0,6,unknown,2,2014-11-15 17:54:19.335,8,2014-11-15 17:52:35.410,3
2014-11-15 17:54:23.418,5242,174.7333,40.10463,-88.22192,235.4543,0.63,217.2656,6,30,1416095663,-0.4046021,-0.05290222,1.005203,-59.15579,12.16368,31.5994,268.5243,271.6066,11,1.613481,-0.2789129,0.4552956,-1.236714,-2.760742,0.02454778,1.68662,-0.06747024,0.4818789,0.05952524,-0.1012939,0.1269387,172.17.160.76,10.64.29.0,6,unknown,2,2014-11-15 17:54:19.335,8,2014-11-15 17:52:35.410,3
2014-11-15 17:54:23.451,5243,174.7667,40.10463,-88.22192,235.4543,0.63,217.2656,6,30,1416095663,-0.4624023,0.002853394,1.002838,-57.32968,15.368,30.15814,267.9341,271.0164,11,1.80633,-0.1850529,0.5145108,-1.22696,-2.769173,-0.06504174,1.836855,-0.1173844,0.4948526,-0.09263365,-0.1004115,0.03582129,172.17.160.76,10.64.29.0,6,unknown,2,2014-11-15 17:54:19.335,8,2014-11-15 17:52:35.410,3
2014-11-15 17:54:23.484,5244,174.8,40.10463,-88.22192,235.4543,0.63,217.2656,6,30,1416095663,-0.4823151,0.06564331,0.8923187,-56.57166,16.74622,29.75592,267.6984,270.7807,11,1.688857,-0.1653163,0.5882968,-1.222983,-2.770946,-0.1035933,1.875126,-0.1182028,0.5297339,-0.1021262,-0.1005547,0.07574165,172.17.160.76,10.64.29.0,6,unknown,2,2014-11-15 17:54:19.335,8,2014-11-15 17:52:35.410,3
2014-11-15 17:54:23.518,5245,174.8333,40.10463,-88.22192,235.4543,0.63,217.2656,6,30,1416095663,-0.5132599,0.08203125,0.9142761,-55.64137,18.08997,28.98505,267.4725,270.5548,11,1.688857,-0.1653163,0.5882968,-1.221424,-2.772021,-0.1226876,1.819616,-0.1286335,0.5521779,-0.1126138,-0.07991483,0.02641623,172.17.160.76,10.64.29.0,6,unknown,2,2014-11-15 17:54:19.335,8,2014-11-15 17:52:35.410,3
2014-11-15 17:54:23.551,5246,174.8667,40.10463,-88.22192,235.4543,0.63,217.2656,6,30,1416095663,-0.4192352,0.1559906,0.8521729,-53.78078,21.32877,26.90695,267.4298,270.5121,11,1.835723,0.4090541,0.8168671,-1.226427,-2.764727,-0.2779155,1.772148,0.2379463,0.8313326,-0.08275834,-0.1240831,-0.09835323,172.17.160.76,10.64.29.0,6,unknown,2,2014-11-15 17:54:19.335,8,2014-11-15 17:52:35.410,3
2014-11-15 17:54:23.584,5247,174.9,40.10463,-88.22192,235.4543,0.63,217.2656,6,30,1416095663,-0.4593506,0.1593933,0.9553223,-53.05722,22.81035,25.80084,267.5749,270.6572,11,1.880608,0.5301203,0.8109677,-1.228219,-2.75776,-0.3183621,1.904518,0.4759027,0.8320899,-0.07988785,-0.1521228,0.030979,172.17.160.76,10.64.29.0,6,unknown,2,2014-11-15 17:54:19.335,8,2014-11-15 17:52:35.410,3
2014-11-15 17:54:23.618,5248,174.9333,40.10463,-88.22192,235.4543,0.63,217.2656,6,30,1416095663,-0.4840698,0.1704102,0.8869476,-52.57485,23.91293,24.79535,267.7038,270.7861,11,1.82732,0.524786,0.8047703,-1.228219,-2.75776,-0.3183621,1.904518,0.4759027,0.8320899,-0.07988785,-0.1521228,0.030979,172.17.160.76,10.64.29.0,6,unknown,2,2014-11-15 17:54:19.335,8,2014-11-15 17:52:35.410,3
2014-11-15 17:54:23.651,5249,174.9667,40.10463,-88.22192,235.4543,0.63,217.2656,6,30,1416095663,-0.4815979,0.1946259,0.8365021,-50.88654,26.29033,21.74524,267.8048,270.8871,11,1.719657,0.510978,0.7987318,-1.228583,-2.752184,-0.3394854,1.949403,0.5969688,0.8261904,-0.1013764,-0.1736086,0.08298963,172.17.160.76,10.64.29.0,6,unknown,2,2014-11-15 17:54:19.335,8,2014-11-15 17:52:35.410,3
2014-11-15 17:54:23.685,5250,175,40.10463,-88.22192,235.4543,0.63,217.2656,6,30,1416095663,-0.4531555,0.4610901,0.7988434,-49.71506,28.35764,18.7287,268.0527,271.135,11,1.54218,0.3441342,0.9258956,-1.235717,-2.699836,-0.5113239,1.629315,0.3774246,0.8602001,-0.09132614,-0.04568291,-0.02420247,172.17.160.76,10.64.29.0,6,unknown,2,2014-11-15 17:54:19.335,8,2014-11-15 17:52:35.410,3
2014-11-15 17:54:23.718,5251,175.0333,40.10463,-88.22192,235.4543,0.63,217.2656,6,30,1416095663,-0.4133759,0.4789429,0.8121033,-48.6814,29.46021,17.18689,268.1217,271.204,11,1.544093,0.4394317,1.022985,-1.235717,-2.699836,-0.5113239,1.629315,0.3774246,0.8602001,-0.09132614,-0.04568291,-0.02420247,172.17.160.76,10.64.29.0,6,unknown,2,2014-11-15 17:54:19.335,8,2014-11-15 17:52:35.410,3
2014-11-15 17:54:23.752,5252,175.0667,40.10463,-88.22192,235.4543,0.63,217.2656,6,30,1416095663,-0.4133759,0.4789429,0.8121033,-46.95864,31.04515,13.96918,268.5769,271.6592,11,1.56636,0.5397924,1.088181,-1.237294,-2.696667,-0.5298612,1.610974,0.4109814,0.9411181,-0.1027318,-0.05279206,0.001357641,172.17.160.76,10.64.29.0,6,unknown,2,2014-11-15 17:54:19.335,8,2014-11-15 17:52:35.410,3
2014-11-15 17:54:23.784,5253,175.1,40.10463,-88.22192,235.4543,0.63,217.2656,6,30,1416095663,-0.4133759,0.4789429,0.8121033,-46.95864,31.04515,13.96918,268.5769,271.6592,11,1.56636,0.5397924,1.088181,-1.237294,-2.696667,-0.5298612,1.610974,0.4109814,0.9411181,-0.1027318,-0.05279206,0.001357641,172.17.160.76,10.64.29.0,6,unknown,2,2014-11-15 17:54:19.335,8,2014-11-15 17:52:35.410,3
2014-11-15 17:54:23.818,5254,175.1333,40.10463,-88.22192,235.4543,0.63,217.2656,6,30,1416095663,-0.3017731,0.5093994,0.7661285,-44.54677,32.49227,10.68445,269.2362,272.3185,11,1.550405,0.6174262,1.09608,-1.246541,-2.684448,-0.587719,1.62128,0.6588494,1.121775,-0.003004714,-0.06612192,0.01005179,172.17.160.76,10.64.29.0,6,unknown,2,2014-11-15 17:54:19.335,8,2014-11-15 17:52:35.410,3
2014-11-15 17:54:23.853,5255,175.1667,40.10463,-88.22192,235.4543,0.63,217.2656,6,30,1416095663,-0.5709229,0.6499329,0.5555878,-40.61888,34.6974,5.1875,153.5113,156.5936,11,1.692039,0.2866467,1.061963,-1.242762,-2.635972,-0.9094595,1.756716,0.127423,0.9698615,-0.239177,-0.08328509,-0.0626073,172.17.160.76,10.64.29.0,6,unknown,2,2014-11-15 17:54:19.335,8,2014-11-15 17:52:35.410,3
2014-11-15 17:54:23.885,5256,175.2,40.10463,-88.22192,235.4543,0.63,217.2656,6,30,1416095663,-0.5709229,0.6499329,0.5555878,-39.27512,35.07641,4.483643,148.6569,151.7392,11,1.692039,0.2866467,1.061963,-1.242762,-2.635972,-0.9094595,1.756716,0.127423,0.9698615,-0.239177,-0.08328509,-0.0626073,172.17.160.76,10.64.29.0,6,unknown,2,2014-11-15 17:54:19.335,8,2014-11-15 17:52:35.410,3
2014-11-15 17:54:23.918,5257,175.2333,40.10463,-88.22192,235.4543,0.63,217.2656,6,30,1416095663,-0.5464935,0.6004333,0.6056824,-38.31038,35.48988,3.411133,145.7189,148.8012,11,1.647166,0.4838655,1.144904,-1.242762,-2.635972,-0.9094595,1.756716,0.127423,0.9698615,-0.239177,-0.08328509,-0.0626073,172.17.160.76,10.64.29.0,6,unknown,2,2014-11-15 17:54:19.335,8,2014-11-15 17:52:35.410,3
2014-11-15 17:54:23.953,5258,175.2667,40.10463,-88.22192,235.4543,0.63,217.2656,6,30,1416095663,-0.2684631,0.7866821,0.459549,-34.62368,36.90255,0.2939453,141.8316,144.9139,11,1.106525,0.9699531,0.6123779,-1.252652,-2.583588,-1.053221,1.220189,0.9939427,0.5836851,-0.01038927,-0.0215942,-0.01931776,172.17.160.76,10.64.29.0,6,unknown,2,2014-11-15 17:54:19.335,8,2014-11-15 17:52:35.410,3
2014-11-15 17:54:23.997,5259,175.3,40.10463,-88.22192,235.4543,0.63,217.2656,6,30,1416095663,-0.2684631,0.7866821,0.459549,-34.62368,36.90255,0.2939453,141.8316,144.9139,11,1.106525,0.9699531,0.6123779,-1.252652,-2.583588,-1.053221,1.220189,0.9939427,0.5836851,-0.01038927,-0.0215942,-0.01931776,172.17.160.76,10.64.29.0,6,unknown,2,2014-11-15 17:54:19.335,8,2014-11-15 17:52:35.410,3
2014-11-15 17:54:24.017,5260,175.3333,40.10463,-88.22192,235.4543,0.63,217.2656,6,30,1416095663,0.1182251,0.9146729,0.3602295,-31.52271,36.62691,-3.124878,142.594,145.6763,11,0.6444125,0.8660568,0.7557998,-1.264676,-2.531041,-1.130256,0.76319,0.9651041,0.8177088,0.1449008,-0.02500493,-0.1471001,172.17.160.76,10.64.29.0,6,unknown,2,2014-11-15 17:54:19.335,8,2014-11-15 17:52:35.410,3
2014-11-15 17:54:24.051,5261,175.3667,40.10463,-88.22192,235.4543,0.63,217.2656,6,30,1416095663,-0.05525208,0.9002533,0.4802399,-30.17895,36.11008,-4.029846,142.65,145.7323,11,0.5546603,-0.1021759,0.5769541,-1.273712,-2.521762,-1.151081,0.7836047,0.7475161,0.7092769,0.3332583,-0.04606333,-0.1324008,172.17.160.76,10.64.29.0,2,unknown,2,2014-11-15 17:54:19.335,8,2014-11-15 17:52:35.410,3
2014-11-15 17:54:24.084,5262,175.4,40.10463,-88.22192,235.4543,0.63,217.2656,6,30,1416095663,-0.05525208,0.9002533,0.4802399,-30.17895,36.11008,-4.029846,142.65,145.7323,11,0.5546603,-0.1021759,0.5769541,-1.273712,-2.521762,-1.151081,0.7836047,0.7475161,0.7092769,0.3332583,-0.04606333,-0.1324008,172.17.160.76,10.64.29.0,2,unknown,2,2014-11-15 17:54:19.335,8,2014-11-15 17:52:35.410,3
2014-11-15 17:54:24.118,5263,175.4333,40.10463,-88.22192,235.4543,0.63,217.2656,6,30,1416095663,-0.3576813,0.508194,0.1905975,-27.49146,36.31681,-4.901306,143.0616,146.1439,11,0.3379338,-0.07040545,0.6904501,-1.306549,-2.564108,-1.21319,0.5229713,-0.2624413,0.6232001,-0.06821848,-0.3729251,-0.3766146,172.17.160.76,10.64.29.0,2,unknown,2,2014-11-15 17:54:19.335,8,2014-11-15 17:52:35.410,3
2014-11-15 17:54:24.152,5264,175.4667,40.10463,-88.22192,235.4543,0.63,217.2656,6,30,1416095663,-0.4028931,0.6536865,0.3936768,-26.3889,36.73028,-5.23645,141.9468,145.0291,11,0.2505893,0.1626036,0.7259716,-1.324366,-2.583489,-1.228548,0.4067214,-0.003564204,0.7056712,-0.2325637,-0.3986522,0.06730826,172.17.160.76,10.64.29.0,2,unknown,2,2014-11-15 17:54:19.335,8,2014-11-15 17:52:35.410,3
2014-11-15 17:54:24.255,5265,175.5,40.10463,-88.22192,235.4543,0.63,217.2656,6,30,1416095663,-0.1225433,0.9886169,0.2287598,-22.94338,37.28153,-5.906738,137.9152,140.9975,11,0.08964866,0.1663197,0.3625055,-1.434944,-2.648788,-1.293009,0.3361138,-0.4495192,0.3203918,-0.1747213,-0.1584876,-0.05428113,172.17.160.76,10.64.29.0,2,unknown,2,2014-11-15 17:54:19.335,8,2014-11-15 17:52:35.410,3
2014-11-15 17:54:24.297,5266,175.5333,40.10463,-88.22192,235.4543,0.63,217.2656,6,30,1416095663,-0.1225433,0.9886169,0.2287598,-22.94338,37.28153,-5.906738,137.9152,140.9975,11,0.08964866,0.1663197,0.3625055,-1.441917,-2.657833,-1.296996,0.2359932,-0.1516054,0.3669177,-0.1990363,-0.06358042,-0.1187596,172.17.160.76,10.64.29.0,2,unknown,2,2014-11-15 17:54:19.335,8,2014-11-15 17:52:35.410,3
2014-11-15 17:54:24.318,5267,175.5667,40.10462,-88.22195,235.3263,0.54,216.5625,6,30,1416095664,-0.1929626,0.8737488,0.2337494,-20.97942,36.83361,-5.404114,136.2349,139.3172,11,0.07543164,0.5243919,0.2190213,-1.468434,-2.665797,-1.310397,0.2424909,0.4650675,0.1366146,-0.01686471,-0.02875665,-0.03616632,172.17.160.76,10.64.29.0,2,unknown,2,2014-11-15 17:54:19.335,8,2014-11-15 17:52:35.410,3
2014-11-15 17:54:24.351,5268,175.6,40.10462,-88.22195,235.3263,0.54,216.5625,6,30,1416095664,0.06674194,0.8676758,0.061203,-20.29032,36.97143,-5.337036,135.8754,138.9577,11,-0.1079424,0.4457311,0.2033715,-1.472539,-2.664185,-1.312894,0.1442164,0.5912304,0.2342418,-0.1148336,-0.06548353,-0.0374485,172.17.160.76,10.64.29.0,2,unknown,2,2014-11-15 17:54:19.335,8,2014-11-15 17:52:35.410,3
2014-11-15 17:54:24.384,5269,175.6333,40.10462,-88.22195,235.3263,0.54,216.5625,6,30,1416095664,0.08105469,0.8541412,0.09255981,-19.56675,37.35046,-6.040955,136.9918,140.0741,11,-0.1140576,0.2491451,0.06012059,-1.49046,-2.669505,-1.315529,-0.03917108,0.5125288,0.218537,0.05340853,-0.09219921,-0.03938392,172.17.160.76,10.64.29.0,2,unknown,2,2014-11-15 17:54:19.335,8,2014-11-15 17:52:35.410,3
2014-11-15 17:54:24.418,5270,175.6667,40.10462,-88.22195,235.3263,0.54,216.5625,6,30,1416095664,0.08105469,0.8541412,0.09255981,-19.29112,37.41936,-6.37616,137.4772,140.5595,11,-0.07536932,0.1333743,-0.07225768,-1.495301,-2.67057,-1.315625,-0.04528636,0.3159426,0.07528604,0.1812855,-0.09994434,-0.1637216,172.17.160.76,10.64.29.0,2,unknown,2,2014-11-15 17:54:19.335,8,2014-11-15 17:52:35.410,3
2014-11-15 17:54:24.451,5271,175.7,40.10462,-88.22195,235.3263,0.54,216.5625,6,30,1416095664,-0.07940674,0.8993378,0.3385468,-19.08439,37.48827,-6.979492,138.1019,141.1842,11,-0.1318235,0.1407369,-0.08580679,-1.494577,-2.667627,-1.315373,-0.006598231,0.2001717,-0.05709227,0.2341214,-0.1389889,-0.2502401,172.17.160.76,10.64.29.0,2,unknown,2,2014-11-15 17:54:19.335,8,2014-11-15 17:52:35.410,3
2014-11-15 17:54:24.484,5272,175.7333,40.10462,-88.22195,235.3263,0.54,216.5625,6,30,1416095664,-0.1681061,0.9522552,0.4285736,-19.53231,37.52274,-6.744873,138.2445,141.3268,10,-0.06763018,0.1864442,0.2029166,-1.492689,-2.66381,-1.314639,-0.06305259,0.2075341,-0.07064141,0.1975545,-0.1132296,-0.1324323,172.17.160.76,10.64.29.0,2,unknown,2,2014-11-15 17:54:19.335,8,2014-11-15 17:52:35.410,3
2014-11-15 17:54:24.517,5273,175.7667,40.10462,-88.22195,235.3263,0.54,216.5625,6,30,1416095664,-0.1681061,0.9522552,0.4285736,-19.73904,37.45383,-6.744873,140.288,143.3703,10,0.04513126,0.09117705,0.2582512,-1.495013,-2.663694,-1.313806,-0.1028334,0.2456556,0.05071722,0.0374899,-0.06782161,0.1128524,172.17.160.76,10.64.29.0,2,unknown,2,2014-11-15 17:54:19.335,8,2014-11-15 17:52:35.410,3
2014-11-15 17:54:24.551,5274,175.8,40.10462,-88.22195,235.3263,0.54,216.5625,6,30,1416095664,-0.05308533,0.9290009,0.1903687,-19.94577,37.52274,-6.34259,139.1689,142.2512,10,0.04513126,0.09117705,0.2582512,-1.501794,-2.667691,-1.314336,0.001140429,0.2532411,0.2180819,-0.05234651,-0.01503874,0.2028701,172.17.160.76,10.64.29.0,2,unknown,2,2014-11-15 17:54:19.335,8,2014-11-15 17:52:35.410,3
2014-11-15 17:54:24.585,5275,175.8333,40.10462,-88.22195,235.3263,0.54,216.5625,6,30,1416095664,-0.01370239,0.8876038,-0.07922363,-19.7735,37.28155,-6.37616,139.3746,142.4569,10,-0.07462284,-0.240566,-0.06149186,-1.509707,-2.673454,-1.316382,0.1139017,0.1579738,0.2734165,0.0604785,-0.03881003,-0.03423176,172.17.160.76,10.64.29.0,2,unknown,2,2014-11-15 17:54:19.335,8,2014-11-15 17:52:35.410,3
2014-11-15 17:54:24.618,5276,175.8667,40.10462,-88.22195,235.3263,0.54,216.5625,6,30,1416095664,-0.1717682,0.8786011,0.1067047,-19.60122,37.66056,-6.208496,140.1173,143.1996,10,-0.07462284,-0.240566,-0.06149186,-1.509707,-2.673454,-1.316382,0.1139017,0.1579738,0.2734165,0.0604785,-0.03881003,-0.03423176,172.17.160.76,10.64.29.0,2,unknown,2,2014-11-15 17:54:19.335,8,2014-11-15 17:52:35.410,3
2014-11-15 17:54:24.651,5277,175.9,40.10462,-88.22195,235.3263,0.54,216.5625,6,30,1416095664,-0.2712097,0.8575592,0.2751617,-19.77349,37.83283,-5.973877,139.6366,142.7189,10,-0.2906814,0.01522955,-0.1124099,-1.511062,-2.677781,-1.317091,-0.1003905,-0.1490267,-0.1530521,-0.05948406,-0.08938798,-0.1177713,172.17.160.76,10.64.29.0,2,unknown,2,2014-11-15 17:54:19.335,8,2014-11-15 17:52:35.410,3
2014-11-15 17:54:24.684,5278,175.9333,40.10462,-88.22195,235.3263,0.54,216.5625,6,30,1416095664,0.04481506,1.050385,0.1629944,-20.01468,37.8673,-6.342529,141.1738,144.2561,10,-0.2535905,0.04024995,-0.03280588,-1.531957,-2.686511,-1.30927,-0.2170082,0.3620142,0.1154461,0.1411254,0.02533648,0.01795779,172.17.160.76,10.64.29.0,2,unknown,2,2014-11-15 17:54:19.335,8,2014-11-15 17:52:35.410,3
2014-11-15 17:54:24.718,5279,175.9667,40.10462,-88.22195,235.3263,0.54,216.5625,6,30,1416095664,-0.1740112,1.060486,0.288208,-20.63488,37.8673,-6.409607,140.5163,143.5986,10,-0.1455857,-0.1011618,-0.179378,-1.534229,-2.687234,-1.305765,-0.1323117,-0.05441606,-0.14925,0.07042114,0.1224858,-0.04140896,172.17.160.76,10.64.29.0,2,unknown,2,2014-11-15 17:54:19.335,8,2014-11-15 17:52:35.410,3
2014-11-15 17:54:24.751,5280,176,40.10462,-88.22195,235.3263,0.54,216.5625,6,30,1416095664,-0.2152252,0.9613037,0.3345032,-20.87606,37.97066,-6.376099,140.8438,143.9261,10,-0.1455857,-0.1011618,-0.179378,-1.534229,-2.687234,-1.305765,-0.1323117,-0.05441606,-0.14925,0.07042114,0.1224858,-0.04140896,172.17.160.76,10.64.29.0,2,unknown,2,2014-11-15 17:54:19.335,8,2014-11-15 17:52:35.410,3
2014-11-15 17:54:24.784,5281,176.0333,40.10462,-88.22195,235.3263,0.54,216.5625,6,30,1416095664,-0.2152252,0.9613037,0.3345032,-21.25508,38.14294,-5.605225,139.6259,142.7082,10,-0.1394258,-0.01966425,-0.08025409,-1.529947,-2.683563,-1.304221,-0.0768166,-0.03436632,-0.164213,-0.05752766,0.09580705,0.05193186,172.17.160.76,10.64.29.0,2,unknown,2,2014-11-15 17:54:19.335,8,2014-11-15 17:52:35.410,3
2014-11-15 17:54:24.818,5282,176.0667,40.10462,-88.22195,235.3263,0.54,216.5625,6,30,1416095664,-0.2152252,0.9613037,0.3345032,-21.25508,38.14294,-5.605225,139.6259,142.7082,10,-0.1394258,-0.01966425,-0.08025409,-1.529947,-2.683563,-1.304221,-0.0768166,-0.03436632,-0.164213,-0.05752766,0.09580705,0.05193186,172.17.160.76,10.64.29.0,2,unknown,2,2014-11-15 17:54:19.335,8,2014-11-15 17:52:35.410,3
2014-11-15 17:54:24.852,5283,176.1,40.10462,-88.22195,235.3263,0.54,216.5625,6,30,1416095664,-0.1256714,0.9813843,0.1374359,-21.42735,37.83282,-4.767273,140.1432,143.2255,10,-0.06053711,-0.08783798,-0.09789221,-1.52147,-2.684739,-1.274175,-0.03642239,-0.04475159,-0.1293907,-0.04244948,0.09846473,0.01750114,172.17.160.76,10.64.29.0,2,unknown,2,2014-11-15 17:54:19.335,8,2014-11-15 17:52:35.410,3
2014-11-15 17:54:24.885,5284,176.1333,40.10462,-88.22195,235.3263,0.54,216.5625,6,30,1416095664,-0.1689453,0.789032,0.1960449,-21.87526,37.3849,-4.331543,138.488,141.5703,10,-0.07900774,-0.2349393,-0.02004801,-1.460442,-2.642289,-1.252534,0.08561802,-0.1264677,0.03318971,-0.134244,-0.09571564,0.01144867,172.17.160.76,10.64.29.0,2,unknown,2,2014-11-15 17:54:19.335,8,2014-11-15 17:52:35.410,3
2014-11-15 17:54:24.918,5285,176.1667,40.10462,-88.22195,235.3263,0.54,216.5625,6,30,1416095664,-0.05052185,0.7882385,0.1622162,-22.32318,37.35044,-4.499146,138.5581,141.6404,10,-0.1788965,-0.2633717,-0.1334023,-1.460442,-2.642289,-1.252534,0.08561802,-0.1264677,0.03318971,-0.134244,-0.09571564,0.01144867,172.17.160.76,10.64.29.0,2,unknown,2,2014-11-15 17:54:19.335,8,2014-11-15 17:52:35.410,3
2014-11-15 17:54:24.951,5286,176.2,40.10462,-88.22195,235.3263,0.54,216.5625,6,30,1416095664,-0.105545,0.9303436,0.3054352,-22.87447,37.35044,-4.499146,139.1177,142.2,10,-0.2127141,-0.3247778,-0.2471776,-1.459375,-2.644766,-1.251534,-0.1101329,-0.1965815,-0.1182385,0.09907888,-0.1612286,-0.1137037,172.17.160.76,10.64.29.0,2,unknown,2,2014-11-15 17:54:19.335,8,2014-11-15 17:52:35.410,3
2014-11-15 17:54:24.984,5287,176.2333,40.10462,-88.22195,235.3263,0.54,216.5625,6,30,1416095664,-0.02932739,0.8630219,0.2014923,-23.25347,37.59162,-5.203064,140.5795,143.6618,10,-0.3021964,0.03706268,-0.1770022,-1.442731,-2.638723,-1.244968,-0.1516671,0.1078056,-0.05491433,0.07131994,-0.0641766,-0.1236374,172.17.160.76,10.64.29.0,2,unknown,2,2014-11-15 17:54:19.335,8,2014-11-15 17:52:35.410,3
2014-11-15 17:54:25.018,5288,176.2667,40.10462,-88.22195,235.3263,0.54,216.5625,6,30,1416095664,-0.1485901,0.923233,0.348175,-23.42575,37.35044,-4.901367,141.4622,144.5445,10,-0.2764958,0.0197287,-0.219649,-1.442298,-2.63723,-1.242383,-0.2334339,0.1038517,-0.1618387,0.1265406,-0.0835335,-0.08088712,172.17.160.76,10.64.29.0,2,unknown,2,2014-11-15 17:54:19.335,8,2014-11-15 17:52:35.410,3
2014-11-15 17:54:25.051,5289,176.3,40.10462,-88.22195,235.3263,0.54,216.5625,6,30,1416095664,-0.2805328,0.9735565,0.430954,-23.42575,37.55717,-4.83429,142.2456,145.3279,10,-0.2243585,0.01888767,-0.1869427,-1.440194,-2.634336,-1.239515,-0.2077334,0.0865176,-0.2044855,0.009412527,-0.02239333,0.06387597,172.17.160.76,10.64.29.0,2,unknown,2,2014-11-15 17:54:19.335,8,2014-11-15 17:52:35.410,3
2014-11-15 17:54:25.084,5290,176.3333,40.10462,-88.22195,235.3263,0.54,216.5625,6,30,1416095664,-0.3482056,0.9807739,0.4653778,-23.52912,38.074,-4.398621,142.4545,145.5368,10,-0.2243585,0.01888767,-0.1869427,-1.440194,-2.634336,-1.239515,-0.2077334,0.0865176,-0.2044855,0.009412527,-0.02239333,0.06387597,172.17.160.76,10.64.29.0,2,unknown,2,2014-11-15 17:54:19.335,8,2014-11-15 17:52:35.410,3
2014-11-15 17:54:25.118,5291,176.3667,40.10462,-88.22195,235.5276,0.25,210.5859,6,30,1416095665,-0.3007202,0.9776306,0.4412842,-23.18456,37.66053,-4.599731,142.9828,146.0651,10,-0.1361477,0.06104391,-0.08621025,-1.437794,-2.631228,-1.237132,-0.1555963,0.08567644,-0.07104682,-0.1869544,0.03635031,0.178913,172.17.160.76,10.64.29.0,2,unknown,2,2014-11-15 17:54:19.335,8,2014-11-15 17:52:35.410,3
2014-11-15 17:54:25.151,5292,176.4,40.10462,-88.22195,235.5276,0.25,210.5859,6,30,1416095665,-0.2939606,0.9118805,0.3392792,-22.73665,37.1437,-5.102539,143.8546,146.9369,10,-0.03917723,-0.05334258,0.251437,-1.46029,-2.65042,-1.236166,0.04701732,-0.06415793,0.1217646,-0.1075332,0.03169508,0.03639429,172.17.160.76,10.64.29.0,2,unknown,2,2014-11-15 17:54:19.335,8,2014-11-15 17:52:35.410,3
2014-11-15 17:54:25.184,5293,176.4333,40.10462,-88.22195,235.5276,0.25,210.5859,6,30,1416095665,-0.2939606,0.9118805,0.3392792,-22.63328,37.04034,-5.203125,143.8448,146.9271,10,-0.03806323,0.03170493,0.2571881,-1.464662,-2.655113,-1.237501,0.04676159,-0.05074365,0.2099392,-0.1977096,0.001502939,0.0911371,172.17.160.76,10.64.29.0,2,unknown,2,2014-11-15 17:54:19.335,8,2014-11-15 17:52:35.410,3
2014-11-15 17:54:25.217,5294,176.4667,40.10462,-88.22195,235.5276,0.25,210.5859,6,30,1416095665,-0.1441345,0.9397278,0.4704895,-22.52991,37.1437,-5.102539,144.6059,147.6882,10,-0.1469167,-0.1042217,0.2611259,-1.490426,-2.675672,-1.242938,-1.232542e-05,0.152284,0.2175523,-0.01555273,-0.08391058,-0.02792654,172.17.160.76,10.64.29.0,2,unknown,2,2014-11-15 17:54:19.335,8,2014-11-15 17:52:35.410,3
2014-11-15 17:54:25.251,5295,176.5,40.10462,-88.22195,235.5276,0.25,210.5859,6,30,1416095665,-0.1249084,0.9965973,0.4541473,-22.25427,37.62609,-4.901367,144.1752,147.2575,10,-0.1469167,-0.1042217,0.2611259,-1.496803,-2.680856,-1.243718,-0.0310074,0.05987699,0.2203661,0.0003103652,-0.04831853,0.05772787,172.17.160.76,10.64.29.0,2,unknown,2,2014-11-15 17:54:19.335,8,2014-11-15 17:52:35.410,3
2014-11-15 17:54:25.284,5296,176.5333,40.10462,-88.22195,235.5276,0.25,210.5859,6,30,1416095665,-0.1494293,0.8750763,0.4992065,-22.04753,38.45301,-4.901367,142.8929,145.9752,10,-0.05502916,-0.06432813,0.2026104,-1.598272,-2.800085,-1.254313,-0.06511314,-0.1530509,0.1631137,-0.04025311,-0.06894238,0.1762597,172.17.160.76,10.64.29.0,2,unknown,2,2014-11-15 17:54:19.335,8,2014-11-15 17:52:35.410,3
2014-11-15 17:54:25.318,5297,176.5667,40.10462,-88.22195,235.5276,0.25,210.5859,6,30,1416095665,-0.2332153,0.9494171,0.2562256,-21.7719,38.86648,-5.370605,141.1438,144.2261,10,0.01108594,-0.03034193,0.2046647,-1.61053,-2.812289,-1.254838,0.01372893,0.002456636,0.2177729,-0.04894499,-0.07542282,0.2051754,172.17.160.76,10.64.29.0,2,unknown,2,2014-11-15 17:54:19.335,8,2014-11-15 17:52:35.410,3
2014-11-15 17:54:25.355,5298,176.6,40.10462,-88.22195,235.5276,0.25,210.5859,6,30,1416095665,-0.2348022,0.9645996,0.1609039,-21.7719,38.72866,-5.437622,141.3955,144.4778,10,0.01108594,-0.03034193,0.2046647,-1.61053,-2.812289,-1.254838,0.01372893,0.002456636,0.2177729,-0.04894499,-0.07542282,0.2051754,172.17.160.76,10.64.29.0,2,unknown,2,2014-11-15 17:54:19.335,8,2014-11-15 17:52:35.410,3
2014-11-15 17:54:25.385,5299,176.6333,40.10462,-88.22195,235.5276,0.25,210.5859,6,30,1416095665,-0.07177734,0.8874664,0.3038025,-21.49627,39.27995,-5.102478,140.9204,144.0027,10,-0.0679106,0.103042,0.2746592,-1.652675,-2.84737,-1.25666,-0.1812167,0.1852279,0.2119867,-0.0286024,-0.0740341,0.08538627,172.17.160.76,10.64.29.0,2,unknown,2,2014-11-15 17:54:19.335,8,2014-11-15 17:52:35.410,3
2014-11-15 17:54:25.418,5300,176.6667,40.10462,-88.22195,235.5276,0.25,210.5859,6,30,1416095665,-0.07592773,0.9041595,0.1726227,-20.63488,39.38329,-4.867798,141.6052,144.6875,10,-0.0679106,0.103042,0.2746592,-1.661364,-2.853619,-1.255979,-0.1194875,0.2024861,0.2500598,0.01134243,-0.07411339,0.1588114,172.17.160.76,10.64.29.0,2,unknown,2,2014-11-15 17:54:19.335,8,2014-11-15 17:52:35.410,3
2014-11-15 17:54:25.451,5301,176.7,40.10462,-88.22195,235.5276,0.25,210.5859,6,30,1416095665,-0.07592773,0.9041595,0.1726227,-20.32479,39.48666,-4.968384,141.6716,144.7539,10,-0.01539707,0.03206126,0.1647562,-1.678678,-2.86692,-1.257963,0.08824601,0.1239732,0.2785899,0.01169586,-0.06399912,0.00758376,172.17.160.76,10.64.29.0,2,unknown,2,2014-11-15 17:54:19.335,8,2014-11-15 17:52:35.410,3
2014-11-15 17:54:25.485,5302,176.7333,40.10462,-88.22195,235.5276,0.25,210.5859,6,30,1416095665,-0.05151367,0.9250641,0.04212952,-20.04914,39.34884,-4.901306,140.8323,143.9146,10,-0.2005046,0.006699448,0.03050758,-1.678678,-2.86692,-1.257963,0.08824601,0.1239732,0.2785899,0.01169586,-0.06399912,0.00758376,172.17.160.76,10.64.29.0,2,unknown,2,2014-11-15 17:54:19.335,8,2014-11-15 17:52:35.410,3
2014-11-15 17:54:25.518,5303,176.7667,40.10462,-88.22195,235.5276,0.25,210.5859,6,30,1416095665,-0.05151367,0.9250641,0.04212952,-20.18695,39.83121,-5.23645,142.0669,145.1492,10,-0.3729824,0.01580586,-0.04097939,-1.684602,-2.871525,-1.259218,0.05334461,0.09880779,0.1798702,0.005861811,-0.04769145,-0.1228264,172.17.160.76,10.64.29.0,2,unknown,2,2014-11-15 17:54:19.335,8,2014-11-15 17:52:35.410,3
2014-11-15 17:54:25.550,5304,176.8,40.10462,-88.22195,235.5276,0.25,210.5859,6,30,1416095665,-0.06091309,0.9697113,0.3810883,-20.49705,40.14129,-4.934814,141.345,144.4273,10,-0.4315895,0.05941779,-0.03840731,-1.687758,-2.873706,-1.258676,-0.1317631,0.07344583,0.04562154,0.02976778,-0.02662047,-0.2539952,172.17.160.76,10.64.29.0,2,unknown,2,2014-11-15 17:54:19.335,8,2014-11-15 17:52:35.410,3
2014-11-15 17:54:25.584,5305,176.8333,40.10462,-88.22195,235.5276,0.25,210.5859,6,30,1416095665,-0.06535339,0.986969,0.4785156,-20.32477,40.10683,-5.0354,141.6462,144.7285,10,-0.4082519,0.05863109,-0.0002854909,-1.689656,-2.874782,-1.256035,-0.3042409,0.08255212,-0.02586545,0.06233818,-0.02556204,-0.2588251,172.17.160.76,10.64.29.0,2,unknown,2,2014-11-15 17:54:19.335,8,2014-11-15 17:52:35.410,3
2014-11-15 17:54:25.617,5306,176.8667,40.10462,-88.22195,235.5276,0.25,210.5859,6,30,1416095665,-0.06799316,1.002426,0.5225677,-20.29033,40.00347,-4.867737,141.413,144.4953,10,-0.2975547,0.07497811,0.06095203,-1.69485,-2.877263,-1.249171,-0.3395107,0.1253771,0.0148284,0.02167414,0.02098837,0.07595852,172.17.160.76,10.64.29.0,2,unknown,2,2014-11-15 17:54:19.335,8,2014-11-15 17:52:35.410,3
2014-11-15 17:54:25.651,5307,176.9,40.10462,-88.22195,235.5276,0.25,210.5859,6,30,1416095665,-0.06799316,1.002426,0.5225677,-20.22142,40.21021,-4.733704,141.4276,144.5099,10,-0.140984,0.1093185,0.1157436,-1.69485,-2.877263,-1.249171,-0.3395107,0.1253771,0.0148284,0.02167414,0.02098837,0.07595852,172.17.160.76,10.64.29.0,2,unknown,2,2014-11-15 17:54:19.335,8,2014-11-15 17:52:35.410,3
2014-11-15 17:54:25.684,5308,176.9333,40.10462,-88.22195,235.5276,0.25,210.5859,6,30,1416095665,-0.04089355,0.9718628,0.2871857,-21.80635,40.83042,-4.264465,141.0433,144.1256,10,0.05848009,0.1238476,0.08216731,-1.703292,-2.882219,-1.246013,-0.07224309,0.1760643,0.1308575,0.01384916,0.05470639,0.2141377,172.17.160.76,10.64.29.0,2,unknown,2,2014-11-15 17:54:19.335,8,2014-11-15 17:52:35.410,3
2014-11-15 17:54:25.717,5309,176.9667,40.10462,-88.22195,235.5276,0.25,210.5859,6,30,1416095665,-0.1175232,1.06012,0.5333405,-22.35763,41.03715,-3.929321,140.5118,143.5941,10,-0.2248475,0.08824438,-0.007185209,-1.713505,-2.88857,-1.236098,-0.2713024,0.06257634,0.004688645,-0.06611595,0.005914618,0.1567675,172.17.160.76,10.64.29.0,2,unknown,2,2014-11-15 17:54:19.335,8,2014-11-15 17:52:35.410,3
2014-11-15 17:54:25.752,5310,177,40.10462,-88.22195,235.5276,0.25,210.5859,6,30,1416095665,-0.02726746,1.063522,0.2599335,-22.49546,41.17496,-3.460083,140.3713,143.4536,10,-0.02426779,0.2282718,-0.0252441,-1.71512,-2.888768,-1.234293,-0.1561078,0.154989,0.00792835,-0.03492979,0.1162046,0.2136487,172.17.160.76,10.64.29.0,2,unknown,2,2014-11-15 17:54:19.335,8,2014-11-15 17:52:35.410,3
2014-11-15 17:54:25.784,5311,177.0333,40.10462,-88.22195,235.5276,0.25,210.5859,6,30,1416095665,0.03135681,0.9759979,0.0637207,-22.21981,41.17496,-3.393066,140.424,143.5063,10,-0.154147,0.1576218,-0.102618,-1.715904,-2.887241,-1.233778,-0.0227933,0.2516589,0.01324559,-0.001528254,0.156475,0.118822,172.17.160.76,10.64.29.0,2,unknown,2,2014-11-15 17:54:19.335,8,2014-11-15 17:52:35.410,3
2014-11-15 17:54:25.818,5312,177.0667,40.10462,-88.22195,235.5276,0.25,210.5859,6,30,1416095665,0.01257324,0.779068,0.04499817,-22.25427,41.27833,-3.359497,140.016,143.0983,10,-0.154147,0.1576218,-0.102618,-1.715592,-2.884044,-1.234127,0.04447162,0.2950161,-0.01013061,0.05687504,0.119662,-0.05951572,172.17.160.76,10.64.29.0,2,unknown,2,2014-11-15 17:54:19.335,8,2014-11-15 17:52:35.410,3
2014-11-15 17:54:25.851,5313,177.1,40.10462,-88.22195,235.5276,0.25,210.5859,6,30,1416095665,-0.07197571,1.054047,0.4645081,-22.15091,41.31278,-3.728149,141.7233,144.8056,10,-0.511561,-0.1928102,-0.09675611,-1.712269,-2.878602,-1.221347,-0.5419525,-0.1547951,-0.09309913,-0.04993787,-0.0895553,0.0654336,172.17.160.76,10.64.29.0,2,unknown,2,2014-11-15 17:54:19.335,8,2014-11-15 17:52:35.410,3
2014-11-15 17:54:25.884,5314,177.1333,40.10462,-88.22195,235.5276,0.25,210.5859,6,30,1416095665,-0.06761169,0.9947357,0.3656769,-22.3921,41.48505,-3.560547,143.3438,146.4261,10,-0.511561,-0.1928102,-0.09675611,-1.714171,-2.882178,-1.215818,-0.5441575,-0.1790981,-0.07517369,-0.02368188,0.03985446,0.1470919,172.17.160.76,10.64.29.0,2,unknown,2,2014-11-15 17:54:19.335,8,2014-11-15 17:52:35.410,3
2014-11-15 17:54:25.918,5315,177.1667,40.10462,-88.22195,235.5276,0.25,210.5859,6,30,1416095665,-0.06761169,0.9947357,0.3656769,-22.46102,41.48505,-3.158386,143.6338,146.7161,10,-0.353663,-0.1090873,-0.1160132,-1.715464,-2.884814,-1.211032,-0.4428225,-0.1260667,-0.0816428,0.00989611,0.1256656,0.1797987,172.17.160.76,10.64.29.0,2,unknown,2,2014-11-15 17:54:19.335,8,2014-11-15 17:52:35.410,3
2014-11-15 17:54:25.951,5316,177.2,40.10462,-88.22195,235.5276,0.25,210.5859,6,30,1416095665,-0.2804108,0.8745575,0.4385986,-22.97785,41.4506,-2.588562,143.8325,146.9148,10,-0.1367685,-0.4409593,-0.008178834,-1.707994,-2.889838,-1.192159,0.1185106,-0.1400507,0.07221918,0.065883,0.08352615,-0.254105,172.17.160.76,10.64.29.0,2,unknown,2,2014-11-15 17:54:19.335,8,2014-11-15 17:52:35.410,3
2014-11-15 17:54:25.984,5317,177.2333,40.10462,-88.22195,235.5276,0.25,210.5859,6,30,1416095665,-0.1877289,0.9473267,0.344696,-23.59804,41.38169,-2.052246,142.1912,145.2735,10,-0.1367685,-0.4409593,-0.008178834,-1.710634,-2.893177,-1.194228,0.1566946,-0.1044529,0.1455059,-0.05987026,-0.04914912,-0.008023647,172.17.160.76,10.64.29.0,2,unknown,2,2014-11-15 17:54:19.335,8,2014-11-15 17:52:35.410,3
2014-11-15 17:54:26.017,5318,177.2667,40.10462,-88.22195,235.5276,0.25,210.5859,6,30,1416095665,-0.127533,0.9017639,0.2089081,-23.66696,41.17495,-2.454407,141.7586,144.8409,10,-0.3159463,-0.2309461,0.0721477,-1.711834,-2.897257,-1.194286,-0.06803156,-0.3742174,0.00693412,-0.1914654,-0.05539599,0.08184208,172.17.160.76,10.64.29.0,2,unknown,2,2014-11-15 17:54:19.335,8,2014-11-15 17:52:35.410,3
2014-11-15 17:54:26.051,5319,177.3,40.10462,-88.22195,235.5276,0.25,210.5859,6,30,1416095665,-0.127533,0.9017639,0.2089081,-23.90815,41.62286,-2.420898,141.2527,144.335,10,-0.3159463,-0.2309461,0.0721477,-1.712694,-2.90248,-1.192121,-0.2588227,-0.422115,-0.01595631,-0.1981022,-0.03244206,0.05884315,172.17.160.76,10.64.29.0,2,unknown,2,2014-11-15 17:54:19.335,8,2014-11-15 17:52:35.410,3
2014-11-15 17:54:26.084,5320,177.3333,40.10462,-88.22195,235.5276,0.25,210.5859,6,30,1416095665,-0.04321289,0.7243805,0.2476196,-24.25269,41.9674,-1.884644,141.3382,144.4205,10,-0.229695,-0.006109292,0.1621732,-1.715856,-2.907741,-1.189697,-0.2472096,-0.1642045,0.08726059,-0.1015404,0.01907044,-0.01712148,172.17.160.76,10.64.29.0,2,unknown,2,2014-11-15 17:54:19.335,8,2014-11-15 17:52:35.410,3
2014-11-15 17:54:26.118,5321,177.3667,40.10462,-88.22195,235.5276,0.25,210.5859,6,30,1416095665,-0.1342316,0.9429474,0.5942535,-25.01071,41.69178,-1.214233,142.3579,145.4402,10,-0.1898682,-0.2088296,-0.3697844,-1.66836,-2.88849,-1.081706,-0.2072763,0.002208855,-0.3875575,0.08552802,0.06616838,-0.1139125,172.17.160.76,10.64.29.0,2,unknown,2,2014-11-15 17:54:19.335,8,2014-11-15 17:52:35.410,3
2014-11-15 17:54:26.151,5322,177.4,40.10462,-88.22197,235.6017,0.29,187.7344,6,10,1416095666,-0.1136017,0.9584503,0.6048279,-25.07962,41.69178,-0.946106,143.5619,146.6442,10,-0.1868961,-0.202943,-0.2933379,-1.66119,-2.882956,-1.079478,-0.1156885,-0.1008695,-0.3831359,0.006682954,0.040377,-0.01365296,172.17.160.76,10.64.29.0,2,unknown,2,2014-11-15 17:54:19.335,8,2014-11-15 17:52:35.410,3
2014-11-15 17:54:26.184,5323,177.4333,40.10462,-88.22197,235.6017,0.29,187.7344,6,10,1416095666,-0.03289795,0.803894,0.4181061,-25.2519,41.72625,-1.180786,144.5192,147.6015,10,0.07190721,-0.216287,-0.2147661,-1.638988,-2.868094,-1.074995,0.1501029,-0.05022214,-0.1312319,0.03454911,0.02379374,0.08616534,172.17.160.76,10.64.29.0,2,unknown,2,2014-11-15 17:54:19.335,8,2014-11-15 17:52:35.410,3
2014-11-15 17:54:26.219,5324,177.4667,40.10462,-88.22197,235.6017,0.29,187.7344,6,10,1416095666,0.01361084,0.7486725,0.3237,-25.76872,41.6918,-1.281372,146.0656,149.1479,10,-0.03557664,-0.3742652,-0.3170978,-1.634498,-2.865345,-1.075953,0.1406384,-0.1495507,-0.1996544,0.05999165,-0.02855704,0.03569593,172.17.160.76,10.64.29.0,2,unknown,2,2014-11-15 17:54:19.335,8,2014-11-15 17:52:35.410,3
2014-11-15 17:54:26.251,5325,177.5,40.10462,-88.22197,235.6017,0.29,187.7344,6,10,1416095666,-0.01448059,0.7528534,0.3032684,-26.699,42.34644,-0.8456421,145.7549,148.8372,10,-0.3294642,-0.6549725,-0.5021734,-1.628539,-2.862755,-1.075818,0.03315432,-0.3075291,-0.3019862,0.1319168,-0.1139573,-0.1018988,172.17.160.76,10.64.29.0,2,unknown,2,2014-11-15 17:54:19.335,8,2014-11-15 17:52:35.410,3
2014-11-15 17:54:26.284,5326,177.5333,40.10462,-88.22197,235.6017,0.29,187.7344,6,10,1416095666,-0.04995728,0.7734985,0.3022461,-27.42257,42.31199,-0.2088013,145.152,148.2343,10,-0.3294642,-0.6549725,-0.5021734,-1.628539,-2.862755,-1.075818,0.03315432,-0.3075291,-0.3019862,0.1319168,-0.1139573,-0.1018988,172.17.160.76,10.64.29.0,2,unknown,2,2014-11-15 17:54:19.335,8,2014-11-15 17:52:35.410,3
2014-11-15 17:54:26.318,5327,177.5667,40.10462,-88.22197,235.6017,0.29,187.7344,6,10,1416095666,-0.04995728,0.7734985,0.3022461,-28.6285,41.93298,1.232422,144.9253,148.0076,10,-0.4445015,-0.712647,-0.5487515,-1.613177,-2.859171,-1.070526,-0.2607335,-0.5882366,-0.4870618,0.1191929,-0.1245997,-0.1573914,172.17.160.76,10.64.29.0,2,unknown,2,2014-11-15 17:54:19.335,8,2014-11-15 17:52:35.410,3
2014-11-15 17:54:26.351,5328,177.6,40.10462,-88.22197,235.6017,0.29,187.7344,6,10,1416095666,-0.1226959,0.8480835,0.3451843,-29.14532,41.55398,1.198914,144.7283,147.8106,10,-0.5595477,-0.7138758,-0.5780487,-1.604753,-2.858141,-1.06571,-0.375771,-0.6459113,-0.53364,0.08537091,-0.1016343,-0.1623276,172.17.160.76,10.64.29.0,2,unknown,2,2014-11-15 17:54:19.335,8,2014-11-15 17:52:35.410,3
2014-11-15 17:54:26.384,5329,177.6333,40.10462,-88.22197,235.6017,0.29,187.7344,6,10,1416095666,-0.1633453,0.875351,0.3740845,-29.35205,40.86488,1.198914,145.248,148.3303,10,-0.5595477,-0.7138758,-0.5780487,-1.596315,-2.857356,-1.059989,-0.4513961,-0.6609418,-0.5589116,0.05230156,-0.0645191,-0.149625,172.17.160.76,10.64.29.0,2,unknown,2,2014-11-15 17:54:19.335,8,2014-11-15 17:52:35.410,3
