time,timestamp,recordtime,lat,long,alt,speed,course,verticalAccuracy,horizontalAccuracy,locTimeStamp,accelerationX,accelerationY,accelerationZ,HeadingX,HeadingY,HeadingZ,TrueHeading,MagneticHeading,HeadingAccuracy,RotationX,RotationY,RotationZ,motionYaw,motionRoll,motionPitch,motionRotationRateX,motionRotationRateY,motionRotationRateZ,motionUserAccelerationX,motionUserAccelerationY,motionUserAccelerationZ,en0,pdp_ip0,DeviceOrientation,Activity,Activity Confidence,Activity Start,Steps,Last Step Date,State
2014-11-15 17:54:48.385,5989,199.6333,40.10469,-88.22198,235.5486,0,120.2344,8,10,1416095688,-0.1494141,0.8820953,0.4509277,-17.9494,46.60846,-17.65695,168.2045,171.2868,25,-0.08318171,-0.1361552,-0.0248196,-1.55909,-2.876379,-1.074958,-0.007151152,-0.06780834,-0.006531699,-0.002002421,-0.01830328,-0.004132402,172.17.160.76,10.64.29.0,2,unknown,1,2014-11-15 17:54:48.108,8,2014-11-15 17:52:35.410,3
2014-11-15 17:54:48.421,5990,199.6667,40.10469,-88.22198,235.5486,0,120.2344,8,10,1416095688,-0.1461182,0.8596191,0.4519196,-17.91496,46.57401,-17.48929,168.2034,171.2857,25,-0.07150374,-0.04341911,0.01489985,-1.556466,-2.875854,-1.074979,0.001333836,-0.005947232,0.02453951,-0.02599723,-0.003649542,-0.00981693,172.17.160.76,10.64.29.0,2,unknown,1,2014-11-15 17:54:48.108,8,2014-11-15 17:52:35.410,3
2014-11-15 17:54:48.450,5991,199.7,40.10469,-88.22198,235.5486,0,120.2344,8,10,1416095688,-0.1412659,0.8870239,0.4608612,-18.12158,46.57401,-17.22092,168.2007,171.283,25,-0.07997233,-0.002045308,0.0055961,-1.556103,-2.874542,-1.074815,-0.0114351,0.04723075,0.03017106,-0.0205351,-0.01988293,-0.00710658,172.17.160.76,10.64.29.0,2,unknown,1,2014-11-15 17:54:48.108,8,2014-11-15 17:52:35.410,3
2014-11-15 17:54:48.485,5992,199.7333,40.10469,-88.22198,235.5486,0,120.2344,8,10,1416095688,-0.1212616,0.8699493,0.4651794,-18.08714,46.81516,-16.71774,168.1907,171.273,25,-0.07883037,0.02225018,-0.01338691,-1.555437,-2.871426,-1.074384,-0.01246024,0.08104391,0.001686583,-0.01335863,0.01402897,0.003495903,172.17.160.76,10.64.29.0,2,unknown,1,2014-11-15 17:54:48.108,8,2014-11-15 17:52:35.410,3
2014-11-15 17:54:48.518,5993,199.7667,40.10469,-88.22198,235.5486,0,120.2344,8,10,1416095688,-0.11586,0.8682098,0.4647064,-18.29377,47.15964,-17.18735,168.1965,171.2788,25,-0.08949579,0.02013829,-0.01229661,-1.556556,-2.868891,-1.073669,-0.0156616,0.09275679,0.004945251,0.01260129,-0.01717013,0.006357412,172.17.160.76,10.64.29.0,2,unknown,1,2014-11-15 17:54:48.108,8,2014-11-15 17:52:35.410,3
2014-11-15 17:54:48.554,5994,199.8,40.10469,-88.22198,235.5486,0,120.2344,8,10,1416095688,-0.1115417,0.8793488,0.4565582,-18.01827,47.22855,-17.25449,168.2036,171.2859,25,-0.0863032,-0.02988546,-0.02318681,-1.55822,-2.868452,-1.072708,-0.02312641,0.05443299,-0.004779831,0.01048257,-0.005847212,0.001801364,172.17.160.76,10.64.29.0,2,unknown,1,2014-11-15 17:54:48.108,8,2014-11-15 17:52:35.410,3
2014-11-15 17:54:48.585,5995,199.8333,40.10469,-88.22198,235.5486,0,120.2344,8,10,1416095688,-0.1208191,0.8882599,0.4638214,-18.12159,46.5051,-17.55637,168.2202,171.3025,25,-0.07146779,-0.05096119,0.001060737,-1.559962,-2.869562,-1.072382,-0.01892176,0.008800412,0.003459972,0.01982986,0.001052794,-0.002813027,172.17.160.76,10.64.29.0,2,unknown,1,2014-11-15 17:54:48.108,8,2014-11-15 17:52:35.410,3
2014-11-15 17:54:48.619,5996,199.8667,40.10469,-88.22198,235.5486,0,120.2344,8,10,1416095688,-0.1012878,0.8744965,0.4554901,-18.08714,46.05727,-17.38864,168.2264,171.3087,25,-0.05221234,-0.06071794,-0.02347683,-1.561645,-2.870781,-1.072518,0.003431388,0.01845534,0.01722807,0.0004680646,0.01163849,-0.0002908396,172.17.160.76,10.64.29.0,2,unknown,1,2014-11-15 17:54:48.108,8,2014-11-15 17:52:35.410,3
2014-11-15 17:54:48.653,5997,199.9,40.10469,-88.22198,235.5486,0,120.2344,8,10,1416095688,-0.1193542,0.8713531,0.4699402,-18.22489,45.91946,-17.5228,168.2275,171.3098,25,-0.04581995,-0.1299101,-0.03978736,-1.562635,-2.871825,-1.073284,0.02048049,-0.01684768,-0.01806449,0.0259007,-0.004275952,-0.004490456,172.17.160.76,10.64.29.0,2,unknown,1,2014-11-15 17:54:48.108,8,2014-11-15 17:52:35.410,3
2014-11-15 17:54:48.686,5998,199.9333,40.10469,-88.22198,235.5486,0,120.2344,8,10,1416095688,-0.1394653,0.8730927,0.4609833,-18.15602,46.26396,-17.72403,168.2288,171.3111,25,-0.0704169,-0.1307687,-0.01422421,-1.562588,-2.873911,-1.073537,0.01830157,-0.07209616,-0.01728266,0.006815323,-0.007540291,0.00991023,172.17.160.76,10.64.29.0,2,unknown,1,2014-11-15 17:54:48.108,8,2014-11-15 17:52:35.410,3
2014-11-15 17:54:48.721,5999,199.9667,40.10469,-88.22198,235.5486,0,120.2344,8,10,1416095688,-0.1385803,0.8822784,0.4541321,-18.6037,45.9539,-17.82462,168.22,171.3024,25,-0.08208288,-0.07555548,-0.02025867,-1.560952,-2.874645,-1.072975,-0.01902037,-0.02414728,-0.002033643,-0.008406509,-0.002206084,-0.008038446,172.17.160.76,10.64.29.0,2,unknown,1,2014-11-15 17:54:48.108,8,2014-11-15 17:52:35.410,3
2014-11-15 17:54:48.753,6000,200,40.10469,-88.22198,235.5486,0,120.2344,8,10,1416095688,-0.1298676,0.8731995,0.4572144,-18.77589,45.91946,-17.65689,168.2113,171.2936,25,-0.06499791,-0.02985617,-0.01795903,-1.559986,-2.873641,-1.072859,-0.008322848,0.01089009,-0.005075412,-0.01212858,0.003709033,-0.006439033,172.17.160.76,10.64.29.0,2,unknown,1,2014-11-15 17:54:48.108,8,2014-11-15 17:52:35.410,3
2014-11-15 17:54:48.784,6001,200.0333,40.10469,-88.22198,235.5486,0,120.2344,8,10,1416095688,-0.1223755,0.8807678,0.4624634,-18.84477,45.85057,-17.4556,168.1962,171.2785,25,-0.06180931,-0.04260898,-0.01803812,-1.559646,-2.87161,-1.072835,0.007563265,0.03437836,0.003437913,0.003399759,-0.01129416,-0.0004336993,172.17.160.76,10.64.29.0,2,unknown,1,2014-11-15 17:54:48.108,8,2014-11-15 17:52:35.410,3
2014-11-15 17:54:48.818,6002,200.0667,40.10469,-88.22198,235.5486,0,120.2344,8,10,1416095688,-0.1199493,0.8791504,0.4559937,-18.36266,46.26398,-17.38858,168.1919,171.2742,25,-0.07140308,-0.04154158,-0.01799658,-1.559844,-2.871249,-1.072775,-0.007331995,0.02366289,-0.009299492,0.008477758,0.007426546,0.004352633,172.17.160.76,10.64.29.0,2,unknown,1,2014-11-15 17:54:48.108,8,2014-11-15 17:52:35.410,3
2014-11-15 17:54:48.851,6003,200.1,40.10469,-88.22198,235.5486,0,120.2344,8,10,1416095688,-0.120697,0.8830261,0.4563751,-18.5004,46.19507,-17.85806,168.1909,171.2732,25,-0.08430609,-0.0817143,0.008377239,-1.560754,-2.8716,-1.072925,-0.01382048,0.006863274,0.0171746,0.007091022,-0.001647794,-0.01048813,172.17.160.76,10.64.29.0,2,unknown,1,2014-11-15 17:54:48.108,8,2014-11-15 17:52:35.410,3
2014-11-15 17:54:48.886,6004,200.1333,40.10469,-88.22198,235.5486,0,120.2344,8,10,1416095688,-0.1103058,0.878067,0.4658508,-18.39709,46.22949,-17.95877,168.1926,171.2749,25,-0.03732021,-0.07448329,-0.01617471,-1.563156,-2.874295,-1.073171,0.001110515,-0.008061701,0.0117343,0.006769695,0.008473425,-0.002930862,172.17.160.76,10.64.29.0,2,unknown,1,2014-11-15 17:54:48.108,8,2014-11-15 17:52:35.410,3
2014-11-15 17:54:48.918,6005,200.1667,40.10469,-88.22198,235.5486,0,120.2344,8,10,1416095688,-0.1201477,0.8726044,0.469574,-18.53484,45.9539,-18.09299,168.1892,171.2715,25,-0.03733059,-0.1181059,-0.02383476,-1.56395,-2.875302,-1.073644,0.02993209,-0.008173173,-0.001110101,0.0151991,-0.0008772197,0.005736113,172.17.160.76,10.64.29.0,2,unknown,1,2014-11-15 17:54:48.108,8,2014-11-15 17:52:35.410,3
2014-11-15 17:54:48.953,6006,200.2,40.10469,-88.22198,235.5486,0,120.2344,8,10,1416095688,-0.1341705,0.8680115,0.4573975,-18.19047,46.1606,-18.36136,168.1923,171.2746,25,-0.06614706,-0.1190742,-0.01311713,-1.563915,-2.877556,-1.074024,0.005272885,-0.06762481,-0.004580074,-0.004708776,-0.005178194,0.01038495,172.17.160.76,10.64.29.0,2,unknown,1,2014-11-15 17:54:48.108,8,2014-11-15 17:52:35.410,3
2014-11-15 17:54:48.984,6007,200.2333,40.10469,-88.22198,235.5486,0,120.2344,8,10,1416095688,-0.1350555,0.8711548,0.4592896,-18.25935,46.1606,-17.6904,168.1878,171.2701,25,-0.05969396,-0.09899183,-0.02683481,-1.562922,-2.878083,-1.073648,0.002081926,-0.04315865,-0.00125743,-0.009946686,-0.01093461,-0.003061249,172.17.160.76,10.64.29.0,2,unknown,1,2014-11-15 17:54:48.108,8,2014-11-15 17:52:35.410,3
2014-11-15 17:54:49.020,6008,200.2667,40.10469,-88.22198,235.5486,0,120.2344,8,10,1416095688,-0.1387177,0.8781128,0.452652,-18.15603,46.53955,-17.79105,168.1891,171.2714,25,-0.06076561,-0.06810395,-0.01711481,-1.560745,-2.877037,-1.073494,0.00531674,-0.01876734,-0.007513106,-0.01718088,-4.270479e-05,-0.002390163,172.17.160.76,10.64.29.0,2,unknown,1,2014-11-15 17:54:48.108,8,2014-11-15 17:52:35.410,3
2014-11-15 17:54:49.051,6009,200.3,40.10469,-88.22198,235.5486,0,120.2344,8,10,1416095688,-0.1233521,0.8926392,0.4638977,-18.5004,46.60844,-17.52261,168.1838,171.2661,25,-0.07876885,-0.03219815,-0.04764129,-1.558304,-2.873903,-1.073763,-0.007414387,0.02686879,-0.01572089,-0.0007558746,4.246337e-05,-0.008589349,172.17.160.76,10.64.29.0,2,unknown,1,2014-11-15 17:54:48.108,8,2014-11-15 17:52:35.410,3
2014-11-15 17:54:49.084,6010,200.3333,40.10469,-88.22198,235.5486,0,120.2344,8,10,1416095688,-0.1345062,0.9015656,0.4838257,-18.43153,46.60846,-17.79099,168.1815,171.2638,25,-0.06803551,-0.03344984,-0.07210216,-1.55717,-2.872282,-1.073508,-0.008381969,0.03407533,-0.04646174,0.003573517,0.01375958,0.004049274,172.17.160.76,10.64.29.0,2,unknown,1,2014-11-15 17:54:48.108,8,2014-11-15 17:52:35.410,3
2014-11-15 17:54:49.118,6011,200.3667,40.10469,-88.22198,235.5486,0,120.2344,8,10,1416095688,-0.1481323,0.944046,0.4966278,-18.29379,46.74626,-17.32144,168.1841,171.2664,25,-0.09151927,-0.03974981,-0.06355554,-1.55264,-2.866902,-1.072577,-0.001012518,0.03303355,-0.05507866,-0.008808102,0.02328333,0.03306469,172.17.160.76,10.64.29.0,2,unknown,2,2014-11-15 17:54:49.037,8,2014-11-15 17:52:35.410,3
2014-11-15 17:54:49.151,6012,200.4,40.10469,-88.22198,235.5074,0,120.2344,8,10,1416095689,-0.2185059,1.052536,0.5749664,-18.08717,46.74626,-17.05307,168.191,171.2733,25,-0.04276717,0.08550078,0.06323782,-1.550101,-2.863394,-1.071212,-0.02241164,0.07156154,-0.01976788,-0.02726739,0.1054639,0.06285719,172.17.160.76,10.64.29.0,2,unknown,2,2014-11-15 17:54:49.037,8,2014-11-15 17:52:35.410,3
2014-11-15 17:54:49.184,6013,200.4333,40.10469,-88.22198,235.5074,0,120.2344,8,10,1416095689,-0.1121674,0.8073425,0.3587341,-17.53618,46.95297,-16.98599,168.2256,171.3079,25,0.1543933,0.04244227,0.4252996,-1.565686,-2.870722,-1.077731,0.1959753,0.1287998,0.399001,-0.05662445,0.0924264,0.04623394,172.17.160.76,10.64.29.0,2,unknown,2,2014-11-15 17:54:49.037,8,2014-11-15 17:52:35.410,3
2014-11-15 17:54:49.218,6014,200.4667,40.10469,-88.22198,235.5074,0,120.2344,8,10,1416095689,-0.0365448,0.6894989,0.3903809,-16.95076,46.84962,-17.35489,169.7739,172.8562,25,0.2303986,-0.02438763,0.3036542,-1.588879,-2.887401,-1.08766,0.2811889,0.149162,0.4274491,0.02783031,-0.1321547,-0.1021124,172.17.160.76,10.64.29.0,2,unknown,2,2014-11-15 17:54:49.037,8,2014-11-15 17:52:35.410,3
2014-11-15 17:54:49.251,6015,200.5,40.10469,-88.22198,235.5074,0,120.2344,8,10,1416095689,-0.01675415,0.906662,0.4589996,-16.46864,46.7807,-17.82449,169.5655,172.6478,25,0.07609344,-0.4007988,0.1175519,-1.605467,-2.900541,-1.098484,0.2154265,-0.09223957,0.2555255,0.07206196,-0.2010197,-0.05141225,172.17.160.76,10.64.29.0,2,unknown,2,2014-11-15 17:54:49.037,8,2014-11-15 17:52:35.410,3
2014-11-15 17:54:49.284,6016,200.5333,40.10469,-88.22198,235.5074,0,120.2344,8,10,1416095689,-0.1217499,1.013092,0.6281586,-16.29646,46.74626,-18.0593,168.1818,171.2641,25,0.148414,-0.5569016,0.1345043,-1.616195,-2.919797,-1.104094,0.147343,-0.4195734,0.09478879,0.08222512,0.01360518,0.0200775,172.17.160.76,10.64.29.0,2,unknown,2,2014-11-15 17:54:49.037,8,2014-11-15 17:52:35.410,3
2014-11-15 17:54:49.319,6017,200.5667,40.10469,-88.22198,235.5074,0,120.2344,8,10,1416095689,0.0005340576,0.9419861,0.3562012,-16.0554,46.64291,-18.02567,167.612,170.6944,25,0.337676,-0.1836793,0.04022758,-1.624859,-2.943962,-1.115496,0.3977667,-0.2256905,0.176606,0.01939959,0.08842784,0.1869309,172.17.160.76,10.64.29.0,2,unknown,2,2014-11-15 17:54:49.037,8,2014-11-15 17:52:35.410,3
2014-11-15 17:54:49.351,6018,200.6,40.10469,-88.22198,235.5074,0,120.2344,8,10,1416095689,-0.4018707,0.8907318,0.4636383,-16.4342,46.74626,-17.92508,165.2986,168.381,25,0.2431192,-0.2908987,-0.09372969,-1.618365,-2.941802,-1.126444,0.3315527,-0.1524417,-0.1189138,0.08584854,0.03909691,-0.06512125,172.17.160.76,10.64.29.0,2,unknown,2,2014-11-15 17:54:49.037,8,2014-11-15 17:52:35.410,3
2014-11-15 17:54:49.384,6019,200.6333,40.10469,-88.22198,235.5074,0,120.2344,8,10,1416095689,-0.169693,1.016022,0.5417328,-15.88321,46.60846,-18.12637,165.1267,168.209,25,0.3323021,0.243872,0.5169816,-1.616788,-2.943137,-1.141854,0.3790344,0.1207986,0.4693315,-0.339876,0.01976271,0.2227775,172.17.160.76,10.64.29.0,2,unknown,2,2014-11-15 17:54:49.037,8,2014-11-15 17:52:35.410,3
2014-11-15 17:54:49.418,6020,200.6667,40.10469,-88.22198,235.5074,0,120.2344,8,10,1416095689,0.02796936,0.941803,0.3659668,-15.05672,46.33287,-18.73019,166.0094,169.0917,25,0.5079362,0.4089273,0.2932204,-1.645966,-2.957683,-1.158223,0.5628507,0.5156027,0.4187095,0.005333726,0.08813477,0.06697512,172.17.160.76,10.64.29.0,2,unknown,2,2014-11-15 17:54:49.037,8,2014-11-15 17:52:35.410,3
2014-11-15 17:54:49.451,6021,200.7,40.10469,-88.22198,235.5074,0,120.2344,8,10,1416095689,-0.09603882,0.9942932,0.3663483,-14.50574,46.40176,-18.9985,165.877,168.9593,25,0.3886729,0.3213503,0.2263325,-1.658431,-2.955625,-1.175822,0.5068371,0.3898521,0.2250673,0.06244831,0.02671574,0.001839944,172.17.160.76,10.64.29.0,2,unknown,2,2014-11-15 17:54:49.037,8,2014-11-15 17:52:35.410,3
2014-11-15 17:54:49.484,6022,200.7333,40.10469,-88.22198,235.5074,0,120.2344,8,10,1416095689,-0.01855469,1.08783,0.4425507,-13.95474,46.05727,-19.80356,165.7865,168.8688,25,0.3943492,0.5898263,0.1799583,-1.671338,-2.953929,-1.189991,0.4120425,0.5759902,0.2444475,-0.02669879,0.06592758,0.001205536,172.17.160.76,10.64.29.0,2,unknown,2,2014-11-15 17:54:49.037,8,2014-11-15 17:52:35.410,3
2014-11-15 17:54:49.518,6023,200.7667,40.10469,-88.22198,235.5074,0,120.2344,8,10,1416095689,-0.007446289,0.8520813,0.1728973,-13.05939,45.29938,-19.60233,166.3475,169.4298,25,0.762153,0.3543362,0.1147135,-1.676824,-2.939416,-1.206488,0.6458384,0.6080549,0.1429,0.1063212,0.179567,0.1050403,172.17.160.76,10.64.29.0,2,unknown,2,2014-11-15 17:54:49.037,8,2014-11-15 17:52:35.410,3
2014-11-15 17:54:49.551,6024,200.8,40.10469,-88.22198,235.5074,0,120.2344,8,10,1416095689,-0.0499115,0.9217072,0.3957825,-12.74945,44.92043,-20.23959,166.9771,170.0594,25,0.489865,0.2225018,0.2286175,-1.674297,-2.923497,-1.230358,0.7682236,0.381763,0.1550493,0.07091893,0.01416356,-0.08416959,172.17.160.76,10.64.29.0,2,unknown,2,2014-11-15 17:54:49.037,8,2014-11-15 17:52:35.410,3
2014-11-15 17:54:49.584,6025,200.8333,40.10469,-88.22198,235.5074,0,120.2344,8,10,1416095689,0.09736633,1.034912,0.2827454,-11.64748,44.09364,-20.84335,168.0679,171.1502,25,0.582889,0.02374901,0.08604541,-1.685852,-2.923373,-1.254079,0.4641306,0.1792371,0.1922732,0.0175147,-0.02855561,0.09171935,172.17.160.76,10.64.29.0,2,unknown,2,2014-11-15 17:54:49.037,8,2014-11-15 17:52:35.410,3
2014-11-15 17:54:49.618,6026,200.8667,40.10469,-88.22198,235.5074,0,120.2344,8,10,1416095689,-0.2342529,0.6914978,0.1164703,-10.82099,43.61134,-21.98373,168.5871,171.6694,25,0.3296719,-0.3505279,0.1773716,-1.679332,-2.915437,-1.280289,0.7264271,-0.1480761,0.04718922,0.1150406,-0.01939319,-0.1800387,172.17.160.76,10.64.29.0,2,unknown,2,2014-11-15 17:54:49.037,8,2014-11-15 17:52:35.410,3
2014-11-15 17:54:49.651,6027,200.9,40.10469,-88.22198,235.5074,0,120.2344,8,10,1416095689,-0.04368591,1.021332,0.2566833,-10.44218,43.3013,-21.88309,168.6735,171.7558,25,0.03974555,0.2217284,-0.04356346,-1.689062,-2.930866,-1.296361,0.1571646,0.167289,0.1242237,-0.0226141,-0.01813561,0.05316754,172.17.160.76,10.64.29.0,2,unknown,2,2014-11-15 17:54:49.037,8,2014-11-15 17:52:35.410,3
2014-11-15 17:54:49.684,6028,200.9333,40.10469,-88.22198,235.5074,0,120.2344,8,10,1416095689,0.01211548,0.9618073,0.3141937,-10.30444,43.0257,-21.81607,168.3215,171.4038,25,0.330787,0.5404118,-0.3189604,-1.688602,-2.927701,-1.297602,0.1065487,0.2883551,-0.02886416,0.01358476,0.05841777,-0.006976791,172.17.160.76,10.64.29.0,2,unknown,2,2014-11-15 17:54:49.037,8,2014-11-15 17:52:35.410,3
2014-11-15 17:54:49.718,6029,200.9667,40.10469,-88.22198,235.5074,0,120.2344,8,10,1416095689,-0.1205902,0.6451111,0.2423401,-9.925621,42.57785,-22.31924,168.7903,171.8726,25,0.05753466,0.07989803,0.03098828,-1.63783,-2.863081,-1.304926,0.1220188,0.09854898,-0.2581404,-0.0248094,-0.02592981,-0.2218169,172.17.160.76,10.64.29.0,2,unknown,2,2014-11-15 17:54:49.037,8,2014-11-15 17:52:35.410,3
2014-11-15 17:54:49.751,6030,201,40.10469,-88.22198,235.5074,0,120.2344,8,10,1416095689,-0.06326294,1.322159,0.530365,-9.787872,42.16444,-22.31924,169.8409,172.9232,25,-0.1240567,0.2262046,-0.1649969,-1.644651,-2.862617,-1.304574,-0.1086885,0.3350323,-0.05222671,0.08340267,-0.1369366,0.1104861,172.17.160.76,10.64.29.0,2,unknown,2,2014-11-15 17:54:49.037,8,2014-11-15 17:52:35.410,3
2014-11-15 17:54:49.784,6031,201.0333,40.10469,-88.22198,235.5074,0,120.2344,8,10,1416095689,0.08692932,0.6732025,-0.1956329,-9.994492,41.54436,-21.91672,169.5945,172.6768,25,0.4819046,-0.1078751,-0.04377038,-1.62474,-2.839099,-1.305334,0.3464659,-0.05683196,-0.1356058,0.01489308,0.3571874,0.2799217,172.17.160.76,10.64.29.0,2,unknown,2,2014-11-15 17:54:49.037,8,2014-11-15 17:52:35.410,3
2014-11-15 17:54:49.818,6032,201.0667,40.10469,-88.22198,235.5074,0,120.2344,8,10,1416095689,-0.08157349,1.137497,0.5322113,-9.787872,41.75105,-21.84952,170.3998,173.4821,25,-0.3185319,0.08530372,-0.4038441,-1.603389,-2.819648,-1.312714,-0.1747165,-0.05049197,-0.1728958,0.1789778,-0.2825854,-0.4101897,172.17.160.76,10.64.29.0,2,unknown,2,2014-11-15 17:54:49.037,8,2014-11-15 17:52:35.410,3
2014-11-15 17:54:49.851,6033,201.1,40.10469,-88.22198,235.5074,0,120.2344,8,10,1416095689,-0.04191589,0.8345032,0.09590149,-9.85675,41.81995,-22.05081,170.5264,173.6087,25,0.2553868,-0.04846367,-0.211385,-1.574332,-2.788198,-1.303537,-0.106804,0.2499426,-0.3456511,0.009823831,0.1729987,0.2844421,172.17.160.76,10.64.29.0,2,unknown,2,2014-11-15 17:54:49.037,8,2014-11-15 17:52:35.410,3
2014-11-15 17:54:49.884,6034,201.1333,40.10469,-88.22198,235.5074,0,120.2344,8,10,1416095689,-0.01089478,0.8926392,0.2960205,-9.581253,42.44003,-22.58749,172.6416,175.7239,25,-0.117936,-0.302215,-0.2081388,-1.541626,-2.754938,-1.307119,0.1610199,-0.1601325,-0.177915,0.05636659,-0.1309349,-0.1454902,172.17.160.76,10.64.29.0,2,unknown,2,2014-11-15 17:54:49.037,8,2014-11-15 17:52:35.410,3
2014-11-15 17:54:49.918,6035,201.1667,40.10469,-88.22198,235.5074,0,120.2344,8,10,1416095689,-0.1353302,0.9314423,0.1338196,-9.787872,42.09552,-22.11783,172.8819,175.9642,25,0.3325431,-0.4748054,-0.09927892,-1.512308,-2.735782,-1.303297,0.06314607,-0.2159544,-0.2595767,0.08977183,0.06409895,0.2875122,172.17.160.76,10.64.29.0,2,unknown,2,2014-11-15 17:54:49.037,8,2014-11-15 17:52:35.410,3
2014-11-15 17:54:49.951,6036,201.2,40.10469,-88.22198,235.5074,0,120.2344,8,10,1416095689,-0.04837036,0.5826874,-0.3473663,-9.994507,42.09552,-21.9166,172.3835,175.4658,25,-0.4454331,-0.6400545,-0.2214293,-1.484348,-2.726672,-1.309757,-0.1274942,-0.6373694,-0.07426126,0.04761152,-0.3789793,-0.7144269,172.17.160.76,10.64.29.0,2,unknown,2,2014-11-15 17:54:49.037,8,2014-11-15 17:52:35.410,3
2014-11-15 17:54:49.983,6037,201.2333,40.10469,-88.22198,235.5074,0,120.2344,8,10,1416095689,-0.04147339,1.188828,0.6210327,-11.09648,41.75104,-21.7153,170.9639,174.0462,25,-0.6676686,-0.04147447,-0.6112549,-1.477286,-2.729553,-1.300812,-0.4225587,-0.285964,-0.4152261,0.03000145,-0.2085872,-0.02741349,172.17.160.76,10.64.29.0,2,unknown,2,2014-11-15 17:54:49.037,8,2014-11-15 17:52:35.410,3
2014-11-15 17:54:50.018,6038,201.2667,40.10469,-88.22198,235.5074,0,120.2344,8,10,1416095689,0.04719543,0.7846527,-0.2198029,-12.43951,41.30319,-21.74887,169.9747,173.057,25,0.1685376,-0.1360726,-0.4216945,-1.425955,-2.673089,-1.27669,0.09718493,0.2009988,-0.4825429,0.06214196,0.1346895,0.1575964,172.17.160.76,10.64.29.0,2,unknown,2,2014-11-15 17:54:49.037,8,2014-11-15 17:52:35.410,3
2014-11-15 17:54:50.051,6039,201.3,40.10469,-88.22198,235.5074,0,120.2344,8,10,1416095689,-0.1173401,0.9469757,0.4477081,-12.9905,41.5099,-21.48056,170.8976,173.9799,25,-0.5355332,-1.032005,-0.4917109,-1.384744,-2.64413,-1.271148,-0.3140145,-0.8029308,-0.4831055,0.2049326,-0.2960167,-0.4966195,172.17.160.76,10.64.29.0,2,unknown,2,2014-11-15 17:54:49.037,8,2014-11-15 17:52:35.410,3
2014-11-15 17:54:50.085,6040,201.3333,40.10469,-88.22198,235.5074,0,120.2344,8,10,1416095689,-0.09994507,1.028183,0.2987976,-14.23023,41.5099,-20.80966,170.8521,173.9344,25,-0.3863669,-0.4181355,-0.6620584,-1.354907,-2.647045,-1.241858,-0.5467502,-0.4969773,-0.6472757,0.03235347,0.1036174,0.2055499,172.17.160.76,10.64.29.0,2,unknown,2,2014-11-15 17:54:49.037,8,2014-11-15 17:52:35.410,3
2014-11-15 17:54:50.118,6041,201.3667,40.10469,-88.22198,235.6064,0,120.2344,8,10,1416095690,-0.06973267,0.8448181,0.1483307,-15.36665,42.09555,-20.10532,171.0245,174.1068,25,-0.6082934,-0.7199073,-0.6766158,-1.331318,-2.632577,-1.228703,-0.3195695,-0.3515145,-0.6473603,0.06353047,0.08612836,0.00586615,172.17.160.76,10.64.29.0,2,unknown,2,2014-11-15 17:54:49.037,8,2014-11-15 17:52:35.410,3
2014-11-15 17:54:50.151,6042,201.4,40.10469,-88.22198,235.6064,0,120.2344,8,10,1416095690,-0.1297913,0.9219971,0.2248383,-16.4342,41.78549,-19.66916,170.7912,173.8735,25,-0.8095163,-1.042502,-0.4918017,-1.299402,-2.631294,-1.196729,-0.7541929,-1.060613,-0.5825937,0.03190168,-0.05709998,-0.1151925,172.17.160.76,10.64.29.0,2,unknown,2,2014-11-15 17:54:49.037,8,2014-11-15 17:52:35.410,3
2014-11-15 17:54:50.184,6043,201.4333,40.10469,-88.22198,235.6064,0,120.2344,8,10,1416095690,-0.1502075,0.8821411,0.598114,-17.67392,41.99217,-18.12625,170.7605,173.8428,25,-0.5584266,-0.5894561,-0.56466,-1.292513,-2.654345,-1.170389,-0.6243308,-0.7908412,-0.4489742,0.05270866,0.001094907,-0.1195931,172.17.160.76,10.64.29.0,2,unknown,2,2014-11-15 17:54:49.037,8,2014-11-15 17:52:35.410,3
2014-11-15 17:54:50.218,6044,201.4667,40.10469,-88.22198,235.6064,0,120.2344,8,10,1416095690,-0.2247467,0.8599091,0.1333313,-19.809,41.71658,-16.18076,168.5083,171.5906,25,-0.8196344,-0.8234814,-0.6158653,-1.258726,-2.653269,-1.132243,-0.6427113,-0.6895895,-0.6914517,0.003779049,0.0109081,0.0441136,172.17.160.76,10.64.29.0,2,unknown,2,2014-11-15 17:54:49.037,8,2014-11-15 17:52:35.410,3
2014-11-15 17:54:50.251,6045,201.5,40.10469,-88.22198,235.6064,0,120.2344,8,10,1416095690,-0.1565704,0.8695526,0.4910736,-20.49773,42.06108,-15.24155,168.4034,171.4857,25,-1.001639,-1.031181,-0.4114115,-1.252649,-2.663604,-1.112737,-0.9270539,-0.8780879,-0.4833292,-0.009157155,-0.114747,-0.3322672,172.17.160.76,10.64.29.0,2,unknown,2,2014-11-15 17:54:49.037,8,2014-11-15 17:52:35.410,3
2014-11-15 17:54:50.284,6046,201.5333,40.10469,-88.22198,235.6064,0,120.2344,8,10,1416095690,-0.2693634,0.8641663,0.6689453,-22.32289,42.50894,-13.32962,167.787,170.8693,25,-0.6290025,-0.8933569,-0.5702419,-1.252439,-2.690809,-1.085103,-0.6829202,-0.8537384,-0.4798694,-0.004825348,0.008440319,0.2135085,172.17.160.76,10.64.29.0,2,unknown,2,2014-11-15 17:54:49.037,8,2014-11-15 17:52:35.410,3
2014-11-15 17:54:50.318,6047,201.5667,40.10469,-88.22198,235.6064,0,120.2344,8,10,1416095690,-0.3152313,0.6555786,0.2929535,-23.39043,42.95679,-11.68594,166.98,170.0623,25,-0.6631468,-0.8017084,-0.5367255,-1.237131,-2.701872,-1.062386,-0.5430003,-0.7724996,-0.5479004,-0.07076457,-0.04988036,-0.01502066,172.17.160.76,10.64.29.0,2,unknown,2,2014-11-15 17:54:49.037,8,2014-11-15 17:52:35.410,3
2014-11-15 17:54:50.351,6048,201.6,40.10469,-88.22198,235.6064,0,120.2344,8,10,1416095690,-0.4380798,0.8941956,0.6076508,-23.97586,43.06015,-10.84744,166.6405,169.7228,25,-0.8565069,-0.7239543,-0.3827386,-1.227414,-2.722007,-1.027868,-0.8322891,-0.6713209,-0.3934311,-0.1835098,-0.1415538,0.03871291,172.17.160.76,10.64.29.0,2,unknown,2,2014-11-15 17:54:49.037,8,2014-11-15 17:52:35.410,3
2014-11-15 17:54:50.384,6049,201.6333,40.10469,-88.22198,235.6064,0,120.2344,8,10,1416095690,-0.244812,0.7319794,0.4252472,-25.04341,42.6123,-9.203888,165.8839,168.9662,25,-0.7668514,-0.1398,-0.2696041,-1.227658,-2.740683,-1.003013,-0.6950629,-0.4939275,-0.2507723,-0.228214,0.0511006,0.1125273,172.17.160.76,10.64.29.0,2,unknown,2,2014-11-15 17:54:49.037,8,2014-11-15 17:52:35.410,3
2014-11-15 17:54:50.418,6050,201.6667,40.10469,-88.22198,235.6064,0,120.2344,8,10,1416095690,-0.2229156,0.8836975,0.709137,-26.35201,42.26781,-7.392609,164.4372,167.5195,25,-0.6768746,-0.3463809,-0.4642185,-1.229151,-2.746782,-0.9810603,-0.6827877,-0.113115,-0.3358545,-0.03090134,-0.09910817,-0.08811012,172.17.160.76,10.64.29.0,2,unknown,2,2014-11-15 17:54:49.037,8,2014-11-15 17:52:35.410,3
2014-11-15 17:54:50.451,6051,201.7,40.10469,-88.22198,235.6064,0,120.2344,8,10,1416095690,-0.1968994,0.7915955,0.2035065,-27.04075,41.99222,-6.788788,164.2784,167.3607,25,-0.7854541,-0.1987448,-0.4789567,-1.218605,-2.748511,-0.9525669,-0.5474373,-0.2674521,-0.3626497,-0.0009101084,0.0687916,0.1737475,172.17.160.76,10.64.29.0,2,unknown,2,2014-11-15 17:54:49.037,8,2014-11-15 17:52:35.410,3
2014-11-15 17:54:50.484,6052,201.7333,40.10469,-88.22198,235.6064,0,120.2344,8,10,1416095690,-0.3059692,0.8110809,0.8791962,-28.2116,41.5099,-6.050873,165.6772,168.7595,25,-0.7473403,-0.4227332,-0.4484345,-1.211301,-2.747928,-0.9283943,-0.8379865,-0.2291334,-0.513152,0.03290857,-0.009063513,-0.3497868,172.17.160.76,10.64.29.0,2,unknown,2,2014-11-15 17:54:49.037,8,2014-11-15 17:52:35.410,3
2014-11-15 17:54:50.518,6053,201.7667,40.10469,-88.22198,235.6064,0,120.2344,8,10,1416095690,-0.1147766,0.7854462,0.3583374,-29.00365,40.78647,-5.346527,165.6628,168.7451,25,-0.6911017,-0.4061353,-0.3572702,-1.203561,-2.756771,-0.8963397,-0.6084675,-0.4349701,-0.3176598,-0.03921273,0.04674294,0.3454223,172.17.160.76,10.64.29.0,2,unknown,2,2014-11-15 17:54:49.037,8,2014-11-15 17:52:35.410,3
2014-11-15 17:54:50.551,6054,201.8,40.10469,-88.22198,235.6064,0,120.2344,8,10,1416095690,-0.1902313,0.6966248,0.6888275,-29.62351,40.37305,-4.407318,165.3561,168.4384,25,-0.8713722,-0.02731924,-0.5785731,-1.194979,-2.757482,-0.8627952,-0.8504392,-0.01386746,-0.571415,0.1139048,-0.0757949,-0.2204832,172.17.160.76,10.64.29.0,2,unknown,2,2014-11-15 17:54:49.037,8,2014-11-15 17:52:35.410,3
2014-11-15 17:54:50.584,6055,201.8333,40.10469,-88.22198,235.6064,0,120.2344,8,10,1416095690,-0.3005371,0.8284912,0.5978394,-30.86324,39.82185,-3.199829,165.4,168.4823,25,-0.7565721,-0.2767206,-0.5314881,-1.188314,-2.752562,-0.8438695,-0.7588874,-0.08385346,-0.5466509,-0.001486886,0.008593298,0.253735,172.17.160.76,10.64.29.0,2,unknown,2,2014-11-15 17:54:49.037,8,2014-11-15 17:52:35.410,3
2014-11-15 17:54:50.618,6056,201.8667,40.10469,-88.22198,235.6064,0,120.2344,8,10,1416095690,-0.1317749,0.552002,0.2940063,-32.55065,39.99411,-1.824554,167.2227,170.305,25,-0.7686855,-0.1352209,-0.3672294,-1.177648,-2.755558,-0.8131228,-0.6412906,-0.216427,-0.3780735,0.01847542,0.001849949,-0.2896592,172.17.160.76,10.64.29.0,2,unknown,2,2014-11-15 17:54:49.037,8,2014-11-15 17:52:35.410,3
2014-11-15 17:54:50.651,6057,201.9,40.10469,-88.22198,235.6064,0,120.2344,8,10,1416095690,-0.1811676,0.8908539,0.9663086,-32.96389,39.92522,-1.556213,167.8162,170.8985,25,-1.052657,-0.4912579,-0.6779937,-1.1755,-2.754764,-0.7871952,-0.9053903,0.0001717518,-0.4162803,0.1196725,-0.1623711,-0.1252079,172.17.160.76,10.64.29.0,2,unknown,2,2014-11-15 17:54:49.037,8,2014-11-15 17:52:35.410,3
2014-11-15 17:54:50.684,6058,201.9333,40.10469,-88.22198,235.6064,0,120.2344,8,10,1416095690,-0.1991882,0.8472748,0.7044373,-33.92812,39.51181,-0.08035278,169.2935,172.3758,25,-0.9435425,-0.4422168,-0.7906611,-1.166577,-2.7584,-0.7533759,-0.9612217,-0.458189,-0.7549749,0.09153709,0.2067489,0.2898232,172.17.160.76,10.64.29.0,2,unknown,2,2014-11-15 17:54:49.037,8,2014-11-15 17:52:35.410,3
2014-11-15 17:54:50.718,6059,201.9667,40.10469,-88.22198,235.6064,0,120.2344,8,10,1416095690,-0.2978363,0.5261993,0.9208069,-34.72018,38.23718,1.429077,281.1899,284.2722,25,-1.146083,-0.1578978,-0.7215321,-1.149325,-2.758416,-0.7088777,-1.012481,-0.1236602,-0.6405043,0.09552307,-0.1052059,-0.3494457,172.17.160.76,10.64.29.0,2,unknown,2,2014-11-15 17:54:49.037,8,2014-11-15 17:52:35.410,3
2014-11-15 17:54:50.751,6060,202,40.10469,-88.22198,235.6064,0,120.2344,8,10,1416095690,-0.3473816,0.6601105,0.7370911,-35.13342,37.54819,2.167023,295.2425,298.3248,25,-1.071486,-0.4889553,-0.796797,-1.139775,-2.755981,-0.6711041,-1.04629,-0.2106411,-0.7639678,-0.003278931,-0.09565172,0.195178,172.17.160.76,10.64.29.0,2,unknown,2,2014-11-15 17:54:49.037,8,2014-11-15 17:52:35.410,3
2014-11-15 17:54:50.784,6061,202.0333,40.10469,-88.22198,235.6064,0,120.2344,8,10,1416095690,-0.2032166,0.4418793,0.6203918,-36.82082,36.54916,3.944794,296.3715,299.4538,25,-1.348983,-0.2761607,-0.6354151,-1.127254,-2.760181,-0.633862,-1.062581,-0.3972518,-0.7118154,-0.04745768,0.0678495,-0.01075423,172.17.160.76,10.64.29.0,2,unknown,2,2014-11-15 17:54:49.037,8,2014-11-15 17:52:35.410,3
2014-11-15 17:54:50.818,6062,202.0667,40.10469,-88.22198,235.6064,0,120.2344,8,10,1416095690,-0.3411102,0.5600281,0.9070435,-38.33604,35.44676,5.756073,295.5529,298.6352,25,-1.441914,-0.4944345,-0.9833211,-1.115432,-2.765065,-0.5612321,-1.349795,-0.3337281,-0.9014723,0.0365552,-0.06663832,0.1641536,172.17.160.76,10.64.29.0,2,unknown,2,2014-11-15 17:54:49.037,8,2014-11-15 17:52:35.410,3
2014-11-15 17:54:50.851,6063,202.1,40.10469,-88.22198,235.6064,0,120.2344,8,10,1416095690,-0.1409149,0.3900146,0.6272278,-39.26584,34.51662,6.728851,294.9077,297.99,25,-1.543046,-0.3456996,-0.992774,-1.106181,-2.768549,-0.5282086,-1.43059,-0.4034522,-0.9938859,0.03314893,0.02985716,-0.05539088,172.17.160.76,10.64.29.0,2,unknown,2,2014-11-15 17:54:49.037,8,2014-11-15 17:52:35.410,3
2014-11-15 17:54:50.884,6064,202.1333,40.10469,-88.22198,235.6064,0,120.2344,8,10,1416095690,-0.5081329,0.3975983,0.8358612,-40.29894,32.31184,9.076813,293.8235,296.9059,25,-1.312454,-0.3934639,-1.112775,-1.087357,-2.767626,-0.4611928,-1.264964,-0.1873238,-1.067672,0.0374256,-0.05266741,0.1648607,172.17.160.76,10.64.29.0,2,unknown,2,2014-11-15 17:54:49.037,8,2014-11-15 17:52:35.410,3
2014-11-15 17:54:50.918,6065,202.1667,40.10469,-88.22198,235.6064,0,120.2344,8,10,1416095690,-0.3953552,0.353241,0.7252655,-41.12543,30.93385,10.21729,292.9977,296.08,25,-1.545,-0.4797466,-0.732348,-1.071395,-2.772926,-0.4129654,-1.448003,-0.491984,-0.8987538,-0.197892,-0.04520229,-0.1339024,172.17.160.76,10.64.29.0,2,unknown,2,2014-11-15 17:54:49.037,8,2014-11-15 17:52:35.410,3
2014-11-15 17:54:50.951,6066,202.2,40.10469,-88.22198,235.6064,0,120.2344,8,10,1416095690,-0.4437714,0.2745972,0.9562378,-42.57178,29.21138,12.02853,292.0733,295.1556,25,-1.445085,-0.3183053,-0.5938793,-1.06918,-2.781315,-0.3648166,-1.469149,-0.1820782,-0.5244626,-0.01644586,-0.01786504,-0.1137152,172.17.160.76,10.64.29.0,2,unknown,2,2014-11-15 17:54:49.037,8,2014-11-15 17:52:35.410,3
2014-11-15 17:54:50.984,6067,202.2333,40.10469,-88.22198,235.6064,0,120.2344,8,10,1416095690,-0.358429,0.2529449,0.897522,-43.77707,26.97215,13.47086,291.4239,294.5062,25,-1.56449,-0.2618079,-0.5772125,-1.06784,-2.787538,-0.319288,-1.484912,-0.248647,-0.617103,-0.1145902,-0.03929344,0.06566916,172.17.160.76,10.64.29.0,2,unknown,2,2014-11-15 17:54:49.037,8,2014-11-15 17:52:35.410,3
2014-11-15 17:54:51.018,6068,202.2667,40.10469,-88.22198,235.6064,0,120.2344,8,10,1416095690,-0.2330627,0.242691,1.066376,-44.63799,26.17981,14.30945,291.1899,294.2722,25,-1.432305,0.09105401,-0.8390968,-1.068997,-2.787065,-0.2572225,-1.420819,0.3077801,-0.5188797,0.04841875,0.009810551,-0.02222173,172.17.160.76,10.64.29.0,6,unknown,2,2014-11-15 17:54:49.037,8,2014-11-15 17:52:35.410,3
2014-11-15 17:54:51.051,6069,202.3,40.10469,-88.22198,235.6064,0,120.2344,8,10,1416095690,-0.2932587,0.2352905,0.9362488,-45.43004,23.73387,16.28839,290.7367,293.819,25,-1.379386,-0.3902751,-0.8343993,-1.061723,-2.780253,-0.2108309,-1.286643,0.01265351,-0.8988239,0.1126365,0.03341858,0.1516643,172.17.160.76,10.64.29.0,6,unknown,2,2014-11-15 17:54:49.037,8,2014-11-15 17:52:35.410,3
2014-11-15 17:54:51.084,6070,202.3333,40.10469,-88.22198,235.6064,0,120.2344,8,10,1416095690,-0.1828766,0.1439362,0.7650909,-46.56645,21.21906,17.32822,289.8268,292.9091,25,-1.289047,-0.4769264,-0.7651361,-1.051762,-2.786364,-0.1659987,-1.222416,-0.3388208,-0.7225864,0.04976502,0.07005313,0.01156972,172.17.160.76,10.64.29.0,6,unknown,2,2014-11-15 17:54:49.037,8,2014-11-15 17:52:35.410,3
2014-11-15 17:54:51.118,6071,202.3667,40.10469,-88.22198,235.7674,0,120.2344,8,10,1416095691,-0.5190125,-0.0423584,1.088516,-46.29095,18.8076,18.80411,289.308,292.3903,25,-0.9439697,-0.5247168,-0.3166115,-1.038398,-2.809194,-0.101397,-0.9429069,-0.5060695,-0.4793116,-0.002971188,-0.1219295,-0.02266746,172.17.160.76,10.64.29.0,6,unknown,2,2014-11-15 17:54:49.037,8,2014-11-15 17:52:35.410,3
2014-11-15 17:54:51.151,6072,202.4,40.10469,-88.22198,235.7674,0,120.2344,8,10,1416095691,-0.4628296,-0.002258301,0.9521027,-46.53201,17.73966,19.30731,286.8664,289.9487,25,-1.067472,-0.4984415,-0.3627159,-1.038368,-2.818236,-0.08276137,-0.8763493,-0.4322007,-0.2605066,-0.2173488,-0.0618692,0.2388784,172.17.160.76,10.64.29.0,6,unknown,2,2014-11-15 17:54:49.037,8,2014-11-15 17:52:35.410,3
2014-11-15 17:54:51.184,6073,202.4333,40.10469,-88.22198,235.7674,0,120.2344,8,10,1416095691,-0.4712524,0.0405426,1.019775,-46.56645,16.05162,20.81674,286.1093,289.1916,25,-1.200906,-0.3446333,-0.2648114,-1.036894,-2.837132,-0.03466776,-1.250143,-0.4596179,-0.397244,-0.1178358,-0.05397844,-0.1867423,172.17.160.76,10.64.29.0,6,unknown,2,2014-11-15 17:54:49.037,8,2014-11-15 17:52:35.410,3
2014-11-15 17:54:51.218,6074,202.4667,40.10469,-88.22198,235.7674,0,120.2344,8,10,1416095691,-0.4347992,-0.0488739,1.006226,-47.18631,14.39804,21.48752,285.8215,288.9038,25,-0.8192595,0.09699446,-0.1524593,-1.039175,-2.841733,-0.01297852,-0.9032046,-0.08036331,-0.1035771,-0.1758917,0.02756445,0.06447773,172.17.160.76,10.64.29.0,6,unknown,2,2014-11-15 17:54:49.037,8,2014-11-15 17:52:35.410,3
2014-11-15 17:54:51.251,6075,202.5,40.10469,-88.22198,235.7674,0,120.2344,8,10,1416095691,-0.3149109,-0.06051636,0.9886475,-47.63398,13.60571,21.45401,285.6666,288.7489,25,-1.004111,0.1487072,-0.3521149,-1.042318,-2.838255,0.01050094,-0.8344122,0.1343036,-0.236451,-0.1361083,-0.03837315,0.05193344,172.17.160.76,10.64.29.0,6,unknown,2,2014-11-15 17:54:49.037,8,2014-11-15 17:52:35.410,3
2014-11-15 17:54:51.284,6076,202.5333,40.10469,-88.22198,235.7674,0,120.2344,8,10,1416095691,-0.3606567,-0.0214386,1.131958,-48.21941,12.12436,21.62177,285.4285,288.5108,25,-0.9321927,0.002127866,-0.1992412,-1.042264,-2.829621,0.04957329,-0.9686743,0.238545,-0.2300921,-0.008352559,-0.01096337,0.03808631,172.17.160.76,10.64.29.0,6,unknown,2,2014-11-15 17:54:49.037,8,2014-11-15 17:52:35.410,3
2014-11-15 17:54:51.318,6077,202.5667,40.10469,-88.22198,235.7674,0,120.2344,8,10,1416095691,-0.1755829,-0.1690369,0.7983551,-48.42604,11.43537,21.28635,285.3343,288.4166,25,-0.8862633,0.08598655,-0.2074634,-1.045526,-2.824913,0.08523587,-0.8259621,0.1334275,-0.2110119,-0.07538342,0.04826747,0.0613539,172.17.160.76,10.64.29.0,6,unknown,2,2014-11-15 17:54:49.037,8,2014-11-15 17:52:35.410,3
2014-11-15 17:54:51.351,6078,202.6,40.10469,-88.22198,235.7674,0,120.2344,8,10,1416095691,-0.3171387,-0.1991119,1.124664,-49.11479,10.33298,21.6218,285.5485,288.6308,25,-0.8573933,-0.05902896,-0.2730856,-1.047713,-2.820228,0.1109103,-0.8546487,0.1821693,-0.2308161,0.1383377,-0.05835377,-0.1446206,172.17.160.76,10.64.29.0,6,unknown,2,2014-11-15 17:54:49.037,8,2014-11-15 17:52:35.410,3
2014-11-15 17:54:51.384,6079,202.6333,40.10469,-88.22198,235.7674,0,120.2344,8,10,1416095691,-0.1958923,-0.1574402,0.8953552,-49.90681,9.540634,21.65536,286.2263,289.3086,25,-0.9948779,-0.1878706,-0.3178315,-1.047953,-2.818558,0.1360192,-0.7277461,-0.05221005,-0.3047064,-0.00262504,-0.06351176,0.1851465,172.17.160.76,10.64.29.0,6,unknown,2,2014-11-15 17:54:49.037,8,2014-11-15 17:52:35.410,3
2014-11-15 17:54:51.418,6080,202.6667,40.10469,-88.22198,235.7674,0,120.2344,8,10,1416095691,-0.2396393,-0.1766205,0.8654175,-50.63,8.403786,21.55472,285.6926,288.7749,25,-0.8527431,-0.2228794,-0.4427415,-1.046085,-2.822278,0.1818954,-0.8138078,-0.01989006,-0.3923171,0.2020328,0.01570239,-0.07361872,172.17.160.76,10.64.29.0,6,unknown,2,2014-11-15 17:54:49.037,8,2014-11-15 17:52:35.410,3
2014-11-15 17:54:51.451,6081,202.7,40.10469,-88.22198,235.7674,0,120.2344,8,10,1416095691,-0.4556427,-0.1237793,1.064697,-50.93993,7.61145,21.65533,285.5122,288.5945,25,-0.6847901,-0.3739888,-0.3210342,-1.042893,-2.826893,0.1992067,-0.7404376,-0.3207392,-0.4069139,-0.02834665,0.04075679,-0.005173954,172.17.160.76,10.64.29.0,6,unknown,2,2014-11-15 17:54:49.037,8,2014-11-15 17:52:35.410,3
2014-11-15 17:54:51.484,6082,202.7333,40.10469,-88.22198,235.7674,0,120.2344,8,10,1416095691,-0.265686,-0.250061,0.9707184,-51.07767,6.440155,22.19202,285.4553,288.5376,25,-0.6892213,-0.06377099,-0.1866988,-1.041355,-2.833079,0.212515,-0.5608851,-0.2532944,-0.1875044,-0.1588312,0.08713967,0.1333455,172.17.160.76,10.64.29.0,6,unknown,2,2014-11-15 17:54:49.037,8,2014-11-15 17:52:35.410,3
2014-11-15 17:54:51.518,6083,202.7667,40.10469,-88.22198,235.7674,0,120.2344,8,10,1416095691,-0.3856964,-0.2156525,0.9752197,-51.45648,5.303322,22.82932,285.2554,288.3377,25,-0.8758974,-0.1144909,-0.1607913,-1.042934,-2.834887,0.2496148,-0.923142,-0.08222687,-0.2107228,-0.01606134,-0.0684753,-0.07317074,172.17.160.76,10.64.29.0,6,unknown,2,2014-11-15 17:54:49.037,8,2014-11-15 17:52:35.410,3
2014-11-15 17:54:51.551,6084,202.8,40.10469,-88.22198,235.7674,0,120.2344,8,10,1416095691,-0.1972046,-0.2846832,0.9411469,-51.31873,5.096619,22.76221,285.9831,289.0654,25,-0.5877048,0.1367863,-0.2157443,-1.046661,-2.833688,0.2703763,-0.5375926,0.1090559,-0.04238367,-0.1339881,0.06822625,0.08293208,172.17.160.76,10.64.29.0,6,unknown,2,2014-11-15 17:54:49.037,8,2014-11-15 17:52:35.410,3
2014-11-15 17:54:51.584,6085,202.8333,40.10469,-88.22198,235.7674,0,120.2344,8,10,1416095691,-0.2524719,-0.2900848,0.9541016,-51.35318,4.373169,22.52734,285.9014,288.9837,25,-0.7391106,0.01875345,-0.2370285,-1.045811,-2.82642,0.2949939,-0.7222756,0.1635405,-0.2972225,0.08235706,-0.03914571,-0.002386963,172.17.160.76,10.64.29.0,6,unknown,2,2014-11-15 17:54:49.037,8,2014-11-15 17:52:35.410,3
2014-11-15 17:54:51.618,6086,202.8667,40.10469,-88.22198,235.7674,0,120.2344,8,10,1416095691,-0.3618011,-0.2960052,0.9707794,-51.18099,3.718628,22.35965,285.6407,288.723,25,-0.6264698,0.03982917,-0.1120845,-1.045645,-2.824055,0.3166622,-0.6077591,0.05837798,-0.1560715,-0.01066872,0.09115107,0.09707457,172.17.160.76,10.64.29.0,6,unknown,2,2014-11-15 17:54:49.037,8,2014-11-15 17:52:35.410,3
2014-11-15 17:54:51.651,6087,202.9,40.10469,-88.22198,235.7674,0,120.2344,8,10,1416095691,-0.1800995,-0.456604,0.7066803,-51.76642,2.443993,22.05777,285.2773,288.3596,25,-0.773414,0.04798803,-0.1666883,-1.047899,-2.819438,0.332845,-0.535276,0.1871798,-0.1206358,-0.06256654,0.03072794,0.07428398,172.17.160.76,10.64.29.0,6,unknown,2,2014-11-15 17:54:49.037,8,2014-11-15 17:52:35.410,3
2014-11-15 17:54:51.684,6088,202.9333,40.10469,-88.22198,235.7674,0,120.2344,8,10,1416095691,-0.4785461,-0.2616882,1.044785,-52.45517,1.4105,21.99069,285.5299,288.6122,25,-0.5018274,0.0133696,-0.09039941,-1.050376,-2.81478,0.3534241,-0.7038198,0.04700016,-0.120743,0.1210848,-0.1104917,-0.1818546,172.17.160.76,10.64.29.0,6,unknown,2,2014-11-15 17:54:49.037,8,2014-11-15 17:52:35.410,3
2014-11-15 17:54:51.718,6089,202.9667,40.10469,-88.22198,235.7674,0,120.2344,8,10,1416095691,-0.3652496,-0.3386078,0.9468231,-52.6618,1.134903,21.7894,285.2945,288.3768,25,-0.3919151,0.2376754,-0.06946164,-1.053003,-2.811541,0.3676601,-0.3094359,0.1555396,-0.07494309,-0.114742,0.06168815,0.08945598,172.17.160.76,10.64.29.0,6,unknown,2,2014-11-15 17:54:49.037,8,2014-11-15 17:52:35.410,3
2014-11-15 17:54:51.751,6090,203,40.10469,-88.22198,235.7674,0,120.2344,8,10,1416095691,-0.2310333,-0.3695679,0.9504547,-52.73067,1.341591,21.52106,286.0843,289.1666,25,-0.4846729,0.2196495,-0.0702707,-1.055879,-2.799608,0.3814878,-0.4277871,0.2812647,-0.03668611,0.0005801778,0.002810172,0.03452406,172.17.160.76,10.64.29.0,6,unknown,2,2014-11-15 17:54:49.037,8,2014-11-15 17:52:35.410,3
2014-11-15 17:54:51.784,6091,203.0333,40.10469,-88.22198,235.7674,0,120.2344,8,10,1416095691,-0.3073578,-0.2849579,1.032196,-52.73068,1.203789,20.91727,286.5073,289.5896,25,-0.2170223,0.1192718,-0.1195682,-1.057179,-2.788574,0.3949413,-0.2357005,0.2050924,-0.1216637,0.06537882,0.05784974,0.1020095,172.17.160.76,10.64.29.0,6,unknown,2,2014-11-15 17:54:49.037,8,2014-11-15 17:52:35.410,3
2014-11-15 17:54:51.818,6092,203.0667,40.10469,-88.22198,235.7674,0,120.2344,8,10,1416095691,-0.3293304,-0.3586731,0.9122467,-52.97174,0.824852,20.81668,286.3003,289.3826,25,-0.1641138,0.007384413,-0.01739177,-1.056332,-2.78546,0.3981737,-0.09200991,0.1406489,-0.06309818,0.01401938,0.1027777,0.1682644,172.17.160.76,10.64.29.0,6,unknown,2,2014-11-15 17:54:49.037,8,2014-11-15 17:52:35.410,3
2014-11-15 17:54:51.851,6093,203.1,40.10469,-88.22198,235.7674,0,120.2344,8,10,1416095691,-0.3635864,-0.2602234,0.9886627,-53.62604,0.3770065,20.51477,285.6765,288.7588,25,0.1227731,0.01227451,-0.05559216,-1.057983,-2.78509,0.4024458,-0.0688255,-0.04180315,-0.02062514,0.01343751,0.03366818,0.03543731,172.17.160.76,10.64.29.0,6,unknown,2,2014-11-15 17:54:49.037,8,2014-11-15 17:52:35.410,3
2014-11-15 17:54:51.884,6094,203.1333,40.10469,-88.22198,235.7674,0,120.2344,8,10,1416095691,-0.3000031,-0.3793335,0.8665314,-53.93597,0.2736511,20.61542,285.1547,288.237,25,0.1729316,-0.07837524,-0.09659365,-1.05663,-2.784796,0.4009467,0.1893134,0.07905243,-0.04112355,-0.0345508,0.1176003,0.1196384,172.17.160.76,10.64.29.0,6,unknown,2,2014-11-15 17:54:49.037,8,2014-11-15 17:52:35.410,3
2014-11-15 17:54:51.918,6095,203.1667,40.10469,-88.22198,235.7674,0,120.2344,8,10,1416095691,-0.3959961,-0.2067261,1.072311,-54.34921,0.2736588,20.61542,284.8899,287.9722,25,0.5309267,-0.1685397,-0.05382675,-1.046922,-2.790215,0.3902743,0.3641719,-0.1010146,-0.09580077,0.07165207,-0.02536538,0.01982406,172.17.160.76,10.64.29.0,6,unknown,2,2014-11-15 17:54:49.037,8,2014-11-15 17:52:35.410,3
2014-11-15 17:54:51.951,6096,203.2,40.10469,-88.22198,235.7674,0,120.2344,8,10,1416095691,-0.2795105,-0.4683533,0.779892,-54.14257,0.4114609,21.08499,284.3597,287.442,25,0.3187234,-0.2225865,-0.04800934,-1.039351,-2.795779,0.3758525,0.579406,-0.08168419,-0.05510723,-0.08069492,0.1603395,0.197184,172.17.160.76,10.64.29.0,6,unknown,2,2014-11-15 17:54:49.037,8,2014-11-15 17:52:35.410,3
2014-11-15 17:54:51.984,6097,203.2333,40.10469,-88.22198,235.7674,0,120.2344,8,10,1416095691,-0.4713745,-0.2400513,1.085175,-53.86708,0.6870499,21.21915,283.5025,286.5848,25,0.5412462,-0.2475371,0.03912903,-1.033611,-2.801837,0.3642964,0.3446177,-0.1597126,0.01011137,0.03187604,-0.1120613,-0.1010703,172.17.160.76,10.64.29.0,6,unknown,2,2014-11-15 17:54:49.037,8,2014-11-15 17:52:35.410,3
2014-11-15 17:54:52.017,6098,203.2667,40.10469,-88.22198,235.7674,0,120.2344,8,10,1416095691,-0.4865265,-0.3043976,0.9370422,-53.45384,1.031548,21.62164,283.8954,286.9778,25,0.86884,0.05279983,0.01082389,-1.026689,-2.80827,0.3388724,0.9447741,0.07641982,0.08022669,-0.1627971,0.09237257,0.1939538,172.17.160.76,10.64.29.0,6,unknown,2,2014-11-15 17:54:49.037,8,2014-11-15 17:52:35.410,3
2014-11-15 17:54:52.051,6099,203.3,40.10469,-88.22198,235.7674,0,120.2344,8,10,1416095691,-0.3492126,-0.4514008,0.882309,-52.83398,1.376038,21.28625,283.138,286.2203,25,0.6869334,0.005608617,0.2235529,-1.016704,-2.806263,0.3078451,0.6643692,0.1224109,0.1027484,0.02363151,-0.1857485,-0.09838026,172.17.160.76,10.64.29.0,6,unknown,2,2014-11-15 17:54:49.037,8,2014-11-15 17:52:35.410,3
2014-11-15 17:54:52.084,6100,203.3333,40.10469,-88.22198,235.7674,0,120.2344,8,10,1416095691,-0.5660553,-0.1358185,1.058319,-52.45517,2.306183,20.64896,283.2281,286.3105,25,0.9849006,0.2239639,0.4539286,-1.016533,-2.80443,0.2908619,0.9300683,0.1307064,0.3745979,-0.1304568,-0.02811757,0.1686185,172.17.160.76,10.64.29.0,6,unknown,2,2014-11-15 17:54:49.037,8,2014-11-15 17:52:35.410,3
2014-11-15 17:54:52.118,6101,203.3667,40.10469,-88.22198,235.7578,0,120.2344,8,10,1416095692,-0.3171844,-0.2757874,0.9948578,-52.42073,3.098526,19.74329,282.6046,285.6869,25,0.7921389,0.2374107,0.3931553,-1.021132,-2.792328,0.2465466,0.9192985,0.2672515,0.445415,-0.11385,0.05158208,0.05836273,172.17.160.76,10.64.29.0,6,unknown,2,2014-11-15 17:54:49.037,8,2014-11-15 17:52:35.410,3
2014-11-15 17:54:52.151,6102,203.4,40.10469,-88.22198,235.7578,0,120.2344,8,10,1416095692,-0.3455963,-0.09420776,1.12265,-52.04194,3.890869,19.10602,282.6765,285.7588,25,1.108406,0.3541786,0.5390704,-1.023981,-2.78133,0.2154904,1.06741,0.415334,0.5061446,0.0271824,-0.06196084,0.08069713,172.17.160.76,10.64.29.0,6,unknown,2,2014-11-15 17:54:49.037,8,2014-11-15 17:52:35.410,3
2014-11-15 17:54:52.184,6103,203.4333,40.10469,-88.22198,235.7578,0,120.2344,8,10,1416095692,-0.2250977,-0.1879425,0.968811,-51.62868,5.337769,18.03262,282.7642,285.8465,25,1.261262,0.2806871,0.3841961,-1.025979,-2.767584,0.1740205,1.390321,0.4537614,0.5497199,0.01423543,0.07893575,0.2058391,172.17.160.76,10.64.29.0,6,unknown,2,2014-11-15 17:54:49.037,8,2014-11-15 17:52:35.410,3
2014-11-15 17:54:52.218,6104,203.4667,40.10469,-88.22198,235.7578,0,120.2344,8,10,1416095692,-0.3565826,-0.0766449,0.9955597,-51.04325,6.199005,17.39532,282.891,285.9733,25,1.15736,-0.1459956,0.4396583,-1.021087,-2.75537,0.1192499,1.255397,0.1758665,0.324789,0.1758662,-0.08437119,0.04856294,172.17.160.76,10.64.29.0,6,unknown,2,2014-11-15 17:54:49.037,8,2014-11-15 17:52:35.410,3
2014-11-15 17:54:52.251,6105,203.5,40.10469,-88.22198,235.7578,0,120.2344,8,10,1416095692,-0.4221191,-0.01144409,1.020035,-51.24988,8.265991,17.05991,283.0436,286.1259,25,1.276343,-0.1205288,0.5837085,-1.019194,-2.755469,0.09337024,1.223895,-0.07922252,0.4541259,0.05411321,-0.04148522,0.04244195,172.17.160.76,10.64.29.0,6,unknown,2,2014-11-15 17:54:49.037,8,2014-11-15 17:52:35.410,3
2014-11-15 17:54:52.284,6106,203.5333,40.10469,-88.22198,235.7578,0,120.2344,8,10,1416095692,-0.4622345,-0.100235,0.9078369,-50.45783,10.09182,16.55676,282.4254,285.5077,25,1.392769,0.03002288,0.5469134,-1.020376,-2.756722,0.0338233,1.486811,0.02917453,0.6139959,-0.04689507,0.02237276,0.09371772,172.17.160.76,10.64.29.0,6,unknown,2,2014-11-15 17:54:49.037,8,2014-11-15 17:52:35.410,3
2014-11-15 17:54:52.318,6107,203.5667,40.10469,-88.22198,235.7578,0,120.2344,8,10,1416095692,-0.4872437,-0.01153564,0.9818268,-50.35453,11.43536,16.65738,283.5309,286.6132,25,1.503088,0.2165858,0.7767628,-1.020831,-2.753915,-0.02948857,1.480209,0.147861,0.7123018,-0.1294952,-0.1379896,-0.04156753,172.17.160.76,10.64.29.0,6,unknown,2,2014-11-15 17:54:49.037,8,2014-11-15 17:52:35.410,3
2014-11-15 17:54:52.351,6108,203.6,40.10469,-88.22198,235.7578,0,120.2344,8,10,1416095692,-0.5249786,-0.09098816,0.8752747,-49.08037,14.43249,15.48334,283.908,286.9903,25,1.619944,0.2830243,0.576055,-1.023113,-2.740666,-0.1014975,1.740688,0.3757183,0.6498988,-0.0801051,-0.1220143,0.03276917,172.17.160.76,10.64.29.0,6,unknown,2,2014-11-15 17:54:49.037,8,2014-11-15 17:52:35.410,3
2014-11-15 17:54:52.384,6109,203.6333,40.10469,-88.22198,235.7578,0,120.2344,8,10,1416095692,-0.5401611,0.08627319,0.9216766,-48.63269,17.29182,14.51062,285.5725,288.6548,25,1.406597,0.3675716,0.6431111,-1.020969,-2.733213,-0.1366456,1.580959,0.3742799,0.5899848,-0.1315581,-0.2272089,-0.03393611,172.17.160.76,10.64.29.0,6,unknown,2,2014-11-15 17:54:49.037,8,2014-11-15 17:52:35.410,3
2014-11-15 17:54:52.418,6110,203.6667,40.10469,-88.22198,235.7578,0,120.2344,8,10,1416095692,-0.4764252,0.2548676,0.9207916,-48.01284,18.60091,13.83972,284.976,288.0583,25,1.428361,0.5437126,0.8944669,-1.026438,-2.715461,-0.2013032,1.427682,0.5520896,0.911001,-0.08565676,-0.03397651,0.1094638,172.17.160.76,10.64.29.0,6,unknown,2,2014-11-15 17:54:49.037,8,2014-11-15 17:52:35.410,3
2014-11-15 17:54:52.451,6111,203.7,40.10469,-88.22198,235.7578,0,120.2344,8,10,1416095692,-0.4036865,0.1277313,0.7812805,-47.15192,20.70234,11.65952,285.3974,288.4797,25,1.552347,0.576911,0.7954596,-1.030699,-2.699072,-0.2533668,1.561313,0.5340543,0.7819663,-0.06659247,-0.03118229,-0.02005739,172.17.160.76,10.64.29.0,6,unknown,2,2014-11-15 17:54:49.037,8,2014-11-15 17:52:35.410,3
2014-11-15 17:54:52.484,6112,203.7333,40.10469,-88.22198,235.7578,0,120.2344,8,10,1416095692,-0.3123627,0.3131866,0.9431763,-46.08437,23.35497,9.076721,287.2041,290.2864,25,1.507744,0.8777853,0.8152562,-1.031325,-2.68028,-0.3071903,1.588019,0.7723749,0.824519,0.0206001,-0.1746504,-0.07226865,172.17.160.76,10.64.29.0,6,unknown,2,2014-11-15 17:54:49.037,8,2014-11-15 17:52:35.410,3
2014-11-15 17:54:52.518,6113,203.7667,40.10469,-88.22198,235.7578,0,120.2344,8,10,1416095692,-0.4676819,0.3752594,0.7693481,-45.70557,24.35401,7.567291,287.394,290.4763,25,1.579938,0.2471872,0.7532836,-1.030984,-2.646978,-0.3785052,1.619969,0.5690979,0.7829925,0.09430612,-0.02225714,0.09950544,172.17.160.76,10.64.29.0,6,unknown,2,2014-11-15 17:54:49.037,8,2014-11-15 17:52:35.410,3
2014-11-15 17:54:52.551,6114,203.8,40.10469,-88.22198,235.7578,0,120.2344,8,10,1416095692,-0.4249725,0.4013519,0.733078,-44.39697,26.69659,5.018097,287.9318,291.0141,25,1.588108,0.2768239,0.8797255,-1.027404,-2.634801,-0.4329512,1.648493,0.3142266,0.8038345,-0.02709187,-0.04429212,-0.02428714,172.17.160.76,10.64.29.0,6,unknown,2,2014-11-15 17:54:49.037,8,2014-11-15 17:52:35.410,3
2014-11-15 17:54:52.584,6115,203.8333,40.10469,-88.22198,235.7578,0,120.2344,8,10,1416095692,-0.5340729,0.5407562,0.8047638,-42.81287,28.76357,1.932129,288.692,291.7743,25,1.593318,0.4016809,0.9514827,-1.025962,-2.62381,-0.4892348,1.665247,0.3841736,0.9219645,0.01192005,-0.06859864,-0.03391048,172.17.160.76,10.64.29.0,6,unknown,2,2014-11-15 17:54:49.037,8,2014-11-15 17:52:35.410,3
2014-11-15 17:54:52.618,6116,203.8667,40.10469,-88.22198,235.7578,0,120.2344,8,10,1416095692,-0.3642578,0.525589,0.7150726,-42.02083,29.90041,0.4898071,289.0914,292.1737,25,1.526524,0.7595634,0.9207115,-1.025667,-2.597594,-0.5844894,1.618406,0.7053693,0.9492162,0.006091149,-0.008865901,0.05170121,172.17.160.76,10.64.29.0,6,unknown,2,2014-11-15 17:54:49.037,8,2014-11-15 17:52:35.410,3
2014-11-15 17:54:52.651,6117,203.9,40.10469,-88.22198,235.7578,0,120.2344,8,10,1416095692,-0.4522858,0.5541534,0.6292572,-40.91885,31.6918,-2.59613,289.1556,292.2379,25,1.461613,0.7720754,0.8849301,-1.02467,-2.580297,-0.6212139,1.561088,0.8804314,0.9110777,0.09763353,-0.07169253,0.01617043,172.17.160.76,10.64.29.0,6,unknown,2,2014-11-15 17:54:49.037,8,2014-11-15 17:52:35.410,3
2014-11-15 17:54:52.684,6118,203.9333,40.10469,-88.22198,235.7578,0,120.2344,8,10,1416095692,-0.4496918,0.6390839,0.7560577,-40.02349,32.65639,-4.206207,289.569,292.6513,25,1.337909,0.8297254,0.9132954,-1.0225,-2.556442,-0.6733329,1.436265,0.6582259,0.8859609,-0.02050706,-0.06944147,-0.02243024,172.17.160.76,10.64.29.0,6,unknown,2,2014-11-15 17:54:49.037,8,2014-11-15 17:52:35.410,3
2014-11-15 17:54:52.718,6119,203.9667,40.10469,-88.22198,235.7578,0,120.2344,8,10,1416095692,-0.259964,0.6184998,0.5579376,-38.43939,33.89657,-7.157928,199.7852,202.8675,25,1.189591,0.8152346,0.9551723,-1.022042,-2.520243,-0.7401118,1.299809,1.015999,0.9775203,0.08734433,-0.04325165,0.06012446,172.17.160.76,10.64.29.0,6,unknown,2,2014-11-15 17:54:49.037,8,2014-11-15 17:52:35.410,3
2014-11-15 17:54:52.751,6120,204,40.10469,-88.22198,235.7578,0,120.2344,8,10,1416095692,-0.3182983,0.6355133,0.5267029,-36.09769,35.27455,-10.17679,185.3671,188.4494,25,1.287389,0.128154,0.8726383,-1.023041,-2.499463,-0.786755,1.222897,0.4532494,0.8856803,0.1753849,-0.0806547,-0.02529086,172.17.160.76,10.64.29.0,6,unknown,2,2014-11-15 17:54:49.037,8,2014-11-15 17:52:35.410,3
2014-11-15 17:54:52.785,6121,204.0333,40.10469,-88.22198,235.7578,0,120.2344,8,10,1416095692,-0.3108521,0.6557617,0.5130463,-33.82485,36.23915,-12.32352,188.4632,191.5455,25,1.234759,-0.1039863,0.9437937,-1.018347,-2.48729,-0.8513027,1.354558,0.1479048,0.9833584,0.08819228,-0.1262393,0.02000626,172.17.160.76,10.64.29.0,6,unknown,2,2014-11-15 17:54:49.037,8,2014-11-15 17:52:35.410,3
2014-11-15 17:54:52.818,6122,204.0667,40.10469,-88.22198,235.7578,0,120.2344,8,10,1416095692,-0.5548553,0.7578278,0.428009,-32.55069,36.96259,-13.22916,187.6754,190.7578,25,1.445584,-0.415378,0.9487948,-1.016528,-2.486609,-0.9003174,1.338453,-0.212701,0.9295071,0.007406004,-0.09553586,0.01404501,172.17.160.76,10.64.29.0,6,unknown,2,2014-11-15 17:54:49.037,8,2014-11-15 17:52:35.410,3
2014-11-15 17:54:52.851,6123,204.1,40.10469,-88.22198,235.7578,0,120.2344,8,10,1416095692,-0.3256531,0.8101349,0.4068909,-30.51891,38.03053,-14.26895,183.5667,186.649,25,1.295333,0.01143934,1.036524,-1.010016,-2.490867,-0.9530636,1.518301,-0.2247756,1.030672,-0.2040039,-0.05736597,-0.03281894,172.17.160.76,10.64.29.0,6,unknown,2,2014-11-15 17:54:49.037,8,2014-11-15 17:52:35.410,3
2014-11-15 17:54:52.884,6124,204.1333,40.10469,-88.22198,235.7578,0,120.2344,8,10,1416095692,-0.4605103,1.040588,0.2496185,-28.76263,39.30516,-15.30875,176.3958,179.4781,25,1.002978,-0.108616,0.7376482,-1.009532,-2.48979,-1.004978,1.254331,0.109668,0.9792863,-0.0004398188,-0.03401552,-0.01930911,172.17.160.76,10.64.29.0,6,unknown,2,2014-11-15 17:54:49.037,8,2014-11-15 17:52:35.410,3
2014-11-15 17:54:52.918,6125,204.1667,40.10469,-88.22198,235.7578,0,120.2344,8,10,1416095692,-0.4234161,0.7705383,0.3910217,-27.83284,39.54631,-15.94601,176.5895,179.6718,25,1.03019,0.6362542,0.7414688,-1.002857,-2.480726,-1.058605,1.125471,0.3601069,0.6456591,-0.1596931,0.1689157,-0.1372869,172.17.160.76,10.64.29.0,6,unknown,2,2014-11-15 17:54:49.037,8,2014-11-15 17:52:35.410,3
2014-11-15 17:54:52.951,6126,204.2,40.10469,-88.22198,235.7578,0,120.2344,8,10,1416095692,-0.2258301,0.7041473,0.1850739,-26.2143,39.92528,-17.58957,172.5616,175.6439,25,0.7830258,0.4310395,0.9897004,-1.013984,-2.460943,-1.11132,0.8014161,0.6247515,1.057998,0.001843145,-0.1278371,-0.1006828,172.17.160.76,10.64.29.0,6,unknown,2,2014-11-15 17:54:49.037,8,2014-11-15 17:52:35.410,3
2014-11-15 17:54:52.984,6127,204.2333,40.10469,-88.22198,235.7578,0,120.2344,8,10,1416095692,-0.08639526,0.7384644,0.3999023,-24.18253,40.30421,-19.09909,172.95,176.0323,25,0.7462361,0.3722636,0.8016464,-1.024432,-2.460331,-1.136818,0.8582503,0.4759109,0.9094555,0.03897909,-0.2031529,-0.1415489,172.17.160.76,10.64.29.0,6,unknown,2,2014-11-15 17:54:49.037,8,2014-11-15 17:52:35.410,3
2014-11-15 17:54:53.018,6128,204.2667,40.10469,-88.22198,235.7578,0,120.2344,8,10,1416095692,-0.05859375,0.8854523,-0.0224762,-23.28716,40.37311,-19.30026,170.5383,173.6206,25,0.3116154,0.02778263,0.6050857,-1.04281,-2.462857,-1.175472,0.4162689,0.1865366,0.6930442,0.2155136,-0.08401994,-0.0220142,172.17.160.76,10.64.29.0,6,unknown,2,2014-11-15 17:54:49.037,8,2014-11-15 17:52:35.410,3
2014-11-15 17:54:53.051,6129,204.3,40.10469,-88.22198,235.7578,0,120.2344,8,10,1416095692,-0.3014984,0.9156647,0.2360535,-21.66864,40.54535,-19.87051,169.331,172.4133,25,-0.1272235,0.09784667,0.1453532,-1.058509,-2.473848,-1.192535,0.2062554,0.1328724,0.3262752,0.07032409,-0.07751685,-0.3899766,172.17.160.76,10.64.29.0,6,unknown,2,2014-11-15 17:54:49.037,8,2014-11-15 17:52:35.410,3
2014-11-15 17:54:53.084,6130,204.3333,40.10469,-88.22198,235.7578,0,120.2344,8,10,1416095692,-0.3108368,0.9073334,0.4384918,-20.91103,40.13197,-20.67557,169.1437,172.226,25,-0.2900316,0.6667394,0.1914179,-1.066556,-2.479148,-1.195346,-0.06079711,0.1646842,0.1597285,-0.07115954,-0.07879529,-0.2528782,172.17.160.76,10.64.29.0,6,unknown,2,2014-11-15 17:54:49.037,8,2014-11-15 17:52:35.410,3
2014-11-15 17:54:53.118,6131,204.3667,40.10469,-88.22198,235.7878,0,120.2344,8,10,1416095693,0.04127502,0.7948608,0.09335327,-20.36004,40.13197,-20.67557,169.3221,172.4044,25,-0.1017027,0.6718143,0.3128099,-1.103486,-2.475312,-1.201413,0.1596185,0.9828322,0.452996,0.006991027,-0.05965575,0.04903164,172.17.160.76,10.64.29.0,6,unknown,2,2014-11-15 17:54:49.037,8,2014-11-15 17:52:35.410,3
2014-11-15 17:54:53.151,6132,204.4,40.10469,-88.22198,235.7878,0,120.2344,8,10,1416095693,-0.1215363,0.9006653,0.2671661,-19.36137,40.30423,-21.24582,172.04,175.1223,25,-0.2800636,0.2053654,0.303591,-1.127005,-2.474193,-1.208094,-0.1674484,0.5491664,0.2725464,0.2608783,-0.1400805,-0.1853205,172.17.160.76,10.64.29.0,6,unknown,2,2014-11-15 17:54:49.037,8,2014-11-15 17:52:35.410,3
2014-11-15 17:54:53.184,6133,204.4333,40.10469,-88.22198,235.7878,0,120.2344,8,10,1416095693,-0.1564941,1.00116,0.1904602,-18.50044,40.68317,-21.07803,173.0484,176.1307,25,-0.07232187,-0.0498906,0.2844853,-1.157542,-2.493425,-1.209096,-0.1327313,0.1808892,0.332043,0.09210163,-0.03463113,-0.01493219,172.17.160.76,10.64.29.0,6,unknown,2,2014-11-15 17:54:49.037,8,2014-11-15 17:52:35.410,3
2014-11-15 17:54:53.218,6134,204.4667,40.10469,-88.22198,235.7878,0,120.2344,8,10,1416095693,-0.2243805,0.875061,0.28302,-18.19051,40.78653,-21.37985,173.4525,176.5348,25,-0.1022004,0.1290488,0.339675,-1.186343,-2.517875,-1.215773,0.009072918,0.1030561,0.3056264,0.003394331,0.04347111,-0.07467202,172.17.160.76,10.64.29.0,6,unknown,2,2014-11-15 17:54:49.037,8,2014-11-15 17:52:35.410,3
2014-11-15 17:54:53.251,6135,204.5,40.10469,-88.22198,235.7878,0,120.2344,8,10,1416095693,-0.06484985,0.9319153,0.2063446,-17.53622,40.95877,-21.21207,172.4577,175.54,25,0.008798818,0.4661496,0.3824323,-1.223784,-2.537309,-1.224777,0.06353829,0.6489258,0.4123221,0.07328393,-0.09624769,0.09790415,172.17.160.76,10.64.29.0,6,unknown,2,2014-11-15 17:54:49.037,8,2014-11-15 17:52:35.410,3
2014-11-15 17:54:53.284,6136,204.5333,40.10469,-88.22198,235.7878,0,120.2344,8,10,1416095693,-0.3317566,0.8313293,0.1464386,-15.98655,40.99323,-21.44681,173.5136,176.5959,25,-0.01850551,-0.376432,0.3844664,-1.240675,-2.544995,-1.230423,0.06855116,0.1248687,0.3840681,0.1227115,-0.01071469,-0.06982472,172.17.160.76,10.64.29.0,6,unknown,2,2014-11-15 17:54:49.037,8,2014-11-15 17:52:35.410,3
2014-11-15 17:54:53.318,6137,204.5667,40.10469,-88.22198,235.7878,0,120.2344,8,10,1416095693,-0.2841187,1.041626,0.4748993,-15.53887,41.16548,-21.4133,172.5752,175.6575,25,0.04740027,-0.067256,0.5259634,-1.287269,-2.604336,-1.24141,0.04848984,-0.255134,0.5763932,-0.1842812,-0.06362697,0.0595566,172.17.160.76,10.64.29.0,6,unknown,2,2014-11-15 17:54:49.037,8,2014-11-15 17:52:35.410,3
2014-11-15 17:54:53.351,6138,204.6,40.10469,-88.22198,235.7878,0,120.2344,8,10,1416095693,-0.102478,0.956665,-0.09793091,-14.5402,41.13101,-21.1785,170.9672,174.0495,25,-0.1624219,0.1245252,0.1583633,-1.326714,-2.635709,-1.255587,0.1305432,0.1989552,0.349197,0.04814636,-0.003740371,-0.06795368,172.17.160.76,10.64.29.0,2,unknown,2,2014-11-15 17:54:49.037,8,2014-11-15 17:52:35.410,3
2014-11-15 17:54:53.384,6139,204.6333,40.10469,-88.22198,235.7878,0,120.2344,8,10,1416095693,-0.09197998,1.068024,0.6350555,-14.40247,41.40662,-20.9772,170.3548,173.4371,25,-0.219387,0.6319261,0.08800629,-1.340622,-2.645825,-1.257652,-0.09599963,0.1913586,0.1727377,0.04406424,0.005295399,-0.3688943,172.17.160.76,10.64.29.0,2,unknown,2,2014-11-15 17:54:49.037,8,2014-11-15 17:52:35.410,3
2014-11-15 17:54:53.418,6140,204.6667,40.10469,-88.22198,235.7878,0,120.2344,8,10,1416095693,-0.3165436,1.002975,0.1949921,-13.98922,41.54442,-21.1785,170.3948,173.4771,25,0.3320285,0.04600504,0.203865,-1.361412,-2.643678,-1.248452,-0.4210331,0.469619,-0.1472705,0.05931778,0.1195284,0.3567288,172.17.160.76,10.64.29.0,2,unknown,2,2014-11-15 17:54:49.037,8,2014-11-15 17:52:35.410,3
2014-11-15 17:54:53.451,6141,204.7,40.10469,-88.22198,235.7878,0,120.2344,8,10,1416095693,-0.04666138,1.073212,0.2887421,-13.61041,41.50998,-21.27908,172.0262,175.1085,25,0.08777939,0.0006508766,0.2332008,-1.362909,-2.640558,-1.250663,0.39845,0.1128377,0.2182392,-0.09933071,0.1430918,0.1565125,172.17.160.76,10.64.29.0,2,unknown,2,2014-11-15 17:54:49.037,8,2014-11-15 17:52:35.410,3
2014-11-15 17:54:53.484,6142,204.7333,40.10469,-88.22198,235.7878,0,120.2344,8,10,1416095693,-0.1899261,1.273819,0.481781,-13.47266,41.44109,-21.48038,172.2071,175.2894,25,-0.1012257,0.2117799,0.03758466,-1.379714,-2.656648,-1.260467,-0.04074223,-0.07757248,0.1626225,0.09569074,0.1209786,0.01857891,172.17.160.76,10.64.29.0,2,unknown,2,2014-11-15 17:54:49.037,8,2014-11-15 17:52:35.410,3
2014-11-15 17:54:53.518,6143,204.7667,40.10469,-88.22198,235.7878,0,120.2344,8,10,1416095693,0.03985596,0.8091583,0.2709351,-13.2316,40.99323,-20.84305,170.9098,173.9921,25,-0.04464523,0.4361842,0.068276,-1.384663,-2.639004,-1.261853,0.08929333,0.7852744,0.03611684,0.2083353,-0.111896,-0.002186063,172.17.160.76,10.64.29.0,2,unknown,2,2014-11-15 17:54:49.037,8,2014-11-15 17:52:35.410,3
2014-11-15 17:54:53.551,6144,204.8,40.10469,-88.22198,235.7878,0,120.2344,8,10,1416095693,-0.1500092,0.8946381,0.3952942,-12.9561,40.92432,-21.31265,171.8269,174.9092,25,0.05651681,-0.3753347,0.2525675,-1.393053,-2.642348,-1.263838,0.05501059,-0.3070955,0.1674239,-0.02525879,-0.006144044,0.05574957,172.17.160.76,10.64.29.0,2,unknown,2,2014-11-15 17:54:49.037,8,2014-11-15 17:52:35.410,3
2014-11-15 17:54:53.584,6145,204.8333,40.10469,-88.22198,235.7878,0,120.2344,8,10,1416095693,0.05690002,0.9337006,0.4339294,-12.71504,41.09656,-22.08408,171.742,174.8243,25,-0.04119191,-0.05044134,0.2132465,-1.413555,-2.668068,-1.271009,0.09317835,-0.0457631,0.3034653,0.08956736,-0.05296399,0.1968335,172.17.160.76,10.64.29.0,2,unknown,2,2014-11-15 17:54:49.037,8,2014-11-15 17:52:35.410,3
2014-11-15 17:54:53.618,6146,204.8667,40.10469,-88.22198,235.7878,0,120.2344,8,10,1416095693,-0.1943665,0.8690491,-0.08773804,-12.40511,40.99323,-22.38602,172.107,175.1893,25,0.05169702,-0.1562365,0.1390993,-1.430034,-2.68362,-1.275503,0.129834,-0.007416106,0.1772135,0.1113656,-0.00449205,-0.0139761,172.17.160.76,10.64.29.0,2,unknown,2,2014-11-15 17:54:49.037,8,2014-11-15 17:52:35.410,3
2014-11-15 17:54:53.651,6147,204.9,40.10469,-88.22198,235.7878,0,120.2344,8,10,1416095693,-0.08102417,0.7500153,0.3332367,-12.26736,41.8889,-22.11765,170.4617,173.5441,25,-0.2840419,-0.09556434,0.1321841,-1.443103,-2.700382,-1.278733,-0.07721167,-0.1793555,0.1812516,-0.101898,-0.1785685,-0.3359475,172.17.160.76,10.64.29.0,2,unknown,2,2014-11-15 17:54:49.037,8,2014-11-15 17:52:35.410,3
2014-11-15 17:54:53.684,6148,204.9333,40.10469,-88.22198,235.7878,0,120.2344,8,10,1416095693,-0.1998596,0.8449249,0.247879,-11.71637,41.81999,-21.7822,170.3153,173.3976,25,-0.2306244,-0.1821091,0.07208538,-1.466044,-2.724307,-1.275409,-0.22623,-0.09788441,0.12598,0.03695735,-0.2066741,0.06710553,172.17.160.76,10.64.29.0,2,unknown,2,2014-11-15 17:54:49.037,8,2014-11-15 17:52:35.410,3
2014-11-15 17:54:53.718,6149,204.9667,40.10469,-88.22198,235.7878,0,120.2344,8,10,1416095693,-0.1357422,0.8975677,0.2380676,-12.09517,42.33673,-21.81583,169.6613,172.7436,25,-0.3890444,-0.1596672,-0.06201144,-1.485724,-2.745009,-1.27212,-0.1568485,-0.02361737,0.1154964,-0.09172166,-0.1437915,-0.1359339,172.17.160.76,10.64.29.0,2,unknown,2,2014-11-15 17:54:49.037,8,2014-11-15 17:52:35.410,3
2014-11-15 17:54:53.751,6150,205,40.10469,-88.22198,235.7878,0,120.2344,8,10,1416095693,-0.1794128,1.038193,0.4437561,-12.19848,42.16449,-21.44681,169.1804,172.2627,25,-0.4489157,0.07181001,0.05407176,-1.495814,-2.756979,-1.263483,-0.411034,-0.03777567,-0.08743098,-0.02224424,-0.05558187,-0.04233214,172.17.160.76,10.64.29.0,2,unknown,2,2014-11-15 17:54:49.037,8,2014-11-15 17:52:35.410,3
2014-11-15 17:54:53.784,6151,205.0333,40.10469,-88.22198,235.7878,0,120.2344,8,10,1416095693,0.03057861,0.9914398,0.2020264,-13.09384,42.50902,-21.11142,168.0062,171.0885,25,-0.2313973,0.1823158,0.06763843,-1.513477,-2.770304,-1.25336,-0.2772258,0.2434346,0.1545051,-0.0661663,0.08815389,0.1528929,172.17.160.76,10.64.29.0,2,unknown,2,2014-11-15 17:54:49.037,8,2014-11-15 17:52:35.410,3
2014-11-15 17:54:53.818,6152,205.0667,40.10469,-88.22198,235.7878,0,120.2344,8,10,1416095693,-0.1467743,1.02417,0.3400269,-12.74947,42.57793,-20.9772,168.4064,171.4887,25,-0.356316,-0.3079285,0.006081595,-1.528601,-2.777797,-1.24917,-0.2160834,0.07212526,-0.01434016,0.1472696,0.04192378,-0.05443935,172.17.160.76,10.64.29.0,2,unknown,2,2014-11-15 17:54:49.037,8,2014-11-15 17:52:35.410,3
2014-11-15 17:54:53.851,6153,205.1,40.10469,-88.22198,235.7878,0,120.2344,8,10,1416095693,-0.07949829,1.004135,0.461441,-12.68058,42.9913,-20.77597,167.517,170.5993,25,-0.1630411,-0.2859266,0.2591679,-1.558919,-2.817181,-1.239023,-0.1660333,-0.2210592,0.2822048,0.02437117,0.07992446,0.1135872,172.17.160.76,10.64.29.0,2,unknown,2,2014-11-15 17:54:49.037,8,2014-11-15 17:52:35.410,3
2014-11-15 17:54:53.884,6154,205.1333,40.10469,-88.22198,235.7878,0,120.2344,8,10,1416095693,-0.1514435,0.9424896,0.1278534,-12.37066,43.09465,-20.54117,167.19,170.2723,25,0.07696296,-0.4918635,0.1595284,-1.581374,-2.847052,-1.240461,0.09205034,-0.3992181,0.2038734,-0.02023332,0.04054693,0.02708723,172.17.160.76,10.64.29.0,2,unknown,2,2014-11-15 17:54:49.037,8,2014-11-15 17:52:35.410,3
2014-11-15 17:54:53.918,6155,205.1667,40.10469,-88.22198,235.7878,0,120.2344,8,10,1416095693,-0.08503723,0.9046326,0.3768463,-12.43953,43.57692,-20.13858,166.5907,169.673,25,-0.3367415,-0.1955186,0.2602944,-1.596266,-2.872658,-1.243319,-0.1147152,-0.2927831,0.2147614,-0.1091757,-0.1160615,-0.3765455,172.17.160.76,10.64.29.0,2,unknown,2,2014-11-15 17:54:49.037,8,2014-11-15 17:52:35.410,3
2014-11-15 17:54:53.951,6156,205.2,40.10469,-88.22198,235.7878,0,120.2344,8,10,1416095693,-0.04666138,0.9753571,0.3391724,-12.26734,44.02478,-20.50766,166.3683,169.4506,25,-0.2035454,0.43747,0.08798445,-1.633527,-2.903565,-1.232449,-0.2994198,0.4271295,0.1364484,0.06004513,0.04074993,0.1412061,172.17.160.76,10.64.29.0,2,unknown,2,2014-11-15 17:54:49.037,8,2014-11-15 17:52:35.410,3
2014-11-15 17:54:53.984,6157,205.2333,40.10469,-88.22198,235.7878,0,120.2344,8,10,1416095693,0.01930237,0.8139954,0.1366119,-11.95741,44.47263,-20.47409,165.0073,168.0896,25,-0.1997549,-0.001026915,0.1334278,-1.641394,-2.901479,-1.230805,-0.02004271,0.4289472,0.1131206,0.03264408,0.03259944,0.01526077,172.17.160.76,10.64.29.0,2,unknown,2,2014-11-15 17:54:49.037,8,2014-11-15 17:52:35.410,3
2014-11-15 17:54:54.018,6158,205.2667,40.10469,-88.22198,235.7878,0,120.2344,8,10,1416095693,-0.1547394,0.9371643,0.2118073,-11.92298,44.43816,-20.70895,165.1311,168.2134,25,-0.3174166,-0.4023999,0.1625378,-1.656006,-2.911977,-1.22858,-0.2306113,-0.1582872,0.1479686,0.09568056,-0.1280179,-0.1901563,172.17.160.76,10.64.29.0,2,unknown,2,2014-11-15 17:54:49.037,8,2014-11-15 17:52:35.410,3
2014-11-15 17:54:54.050,6159,205.3,40.10469,-88.22198,235.7878,0,120.2344,8,10,1416095693,-0.07859802,1.024857,0.4713593,-11.68194,44.5415,-20.47409,164.5324,167.6147,25,-0.36306,-0.02919623,0.1922725,-1.682385,-2.948316,-1.219363,-0.3139309,-0.2174482,0.1883052,-0.08861858,-0.001716097,-0.1260265,172.17.160.76,10.64.29.0,2,unknown,2,2014-11-15 17:54:49.037,8,2014-11-15 17:52:35.410,3
2014-11-15 17:54:54.084,6160,205.3333,40.10469,-88.22198,235.7878,0,120.2344,8,10,1416095693,0.06477356,0.9551392,0.1893158,-11.88856,44.81711,-19.93747,164.3205,167.4028,25,-0.2462934,0.2078017,0.06464397,-1.704053,-2.968568,-1.211807,-0.2357867,0.1724152,0.1805122,-0.01811258,0.08860413,0.1252771,172.17.160.76,10.64.29.0,2,unknown,2,2014-11-15 17:54:49.037,8,2014-11-15 17:52:35.410,3
2014-11-15 17:54:54.118,6161,205.3667,40.10469,-88.22198,236.047,0,120.2344,8,10,1416095694,-0.1504517,1.002472,0.4593201,-11.81967,44.886,-19.46786,163.8292,166.9115,25,-0.3674097,-0.2919362,0.1537533,-1.722779,-2.978396,-1.201621,-0.3221602,-0.1117363,0.1156502,-0.03313837,0.01822626,-0.02012978,172.17.160.76,10.64.29.0,2,unknown,2,2014-11-15 17:54:49.037,8,2014-11-15 17:52:35.410,3
2014-11-15 17:54:54.151,6162,205.4,40.10469,-88.22198,236.047,0,120.2344,8,10,1416095694,0.234436,0.9974365,0.4361572,-12.1296,45.05826,-18.7634,163.301,166.3833,25,-0.2455429,-0.2034096,0.0645987,-1.728376,-2.985641,-1.198779,-0.3010843,-0.2250459,0.1680487,-0.0939933,0.07087588,0.1002361,172.17.160.76,10.64.29.0,2,unknown,2,2014-11-15 17:54:49.037,8,2014-11-15 17:52:35.410,3
2014-11-15 17:54:54.184,6163,205.4333,40.10469,-88.22198,236.047,0,120.2344,8,10,1416095694,-0.04821777,0.960083,0.2263031,-12.02628,45.50609,-18.66281,162.1701,165.2524,25,-0.2886278,-0.2129346,-0.4978756,-1.721332,-2.98469,-1.1894,-0.2414826,-0.1290258,-0.4823574,0.240215,0.08555653,-0.07182223,172.17.160.76,10.64.29.0,2,unknown,2,2014-11-15 17:54:49.037,8,2014-11-15 17:52:35.410,3
2014-11-15 17:54:54.218,6164,205.4667,40.10469,-88.22198,236.047,0,120.2344,8,10,1416095694,-0.1161499,0.7989044,0.3834076,-12.19847,45.54053,-18.69638,162.6781,165.7605,25,-0.3722194,-0.2128611,-0.3521391,-1.68981,-2.960931,-1.180554,-0.2621281,-0.2174676,-0.3755363,-0.05179505,0.01106578,-0.04971296,172.17.160.76,10.64.29.0,2,unknown,2,2014-11-15 17:54:49.037,8,2014-11-15 17:52:35.410,3
2014-11-15 17:54:54.251,6165,205.5,40.10469,-88.22198,236.047,0,120.2344,8,10,1416095694,-0.4282684,1.203964,0.5376434,-12.33621,45.54054,-18.6293,162.9928,166.0751,25,-0.4069023,-0.5052512,-0.2378474,-1.671833,-2.947635,-1.169736,-0.3125554,-0.08356323,-0.2345268,-0.04090385,-0.1217431,0.0003328507,172.17.160.76,10.64.29.0,2,unknown,2,2014-11-15 17:54:49.037,8,2014-11-15 17:52:35.410,3
2014-11-15 17:54:54.284,6166,205.5333,40.10469,-88.22198,236.047,0,120.2344,8,10,1416095694,-0.09118652,0.8900452,0.3749847,-13.02496,45.81615,-18.56216,163.0909,166.1732,25,-0.1856596,-0.2188032,-0.0004569984,-1.65934,-2.946195,-1.15977,-0.3225234,-0.5457264,-0.2284314,-0.3506928,0.2872532,0.1456959,172.17.160.76,10.64.29.0,2,unknown,2,2014-11-15 17:54:49.037,8,2014-11-15 17:52:35.410,3
2014-11-15 17:54:54.318,6167,205.5667,40.10469,-88.22198,236.047,0,120.2344,8,10,1416095694,0.1690063,0.738678,0.2531738,-13.50707,46.36736,-18.02542,162.7365,165.8188,25,-0.5120463,0.5030504,-0.1121966,-1.669256,-2.946454,-1.153296,-0.4223864,0.5297635,-0.06954069,-0.002492858,0.00979885,0.1178596,172.17.160.76,10.64.29.0,2,unknown,2,2014-11-15 17:54:49.037,8,2014-11-15 17:52:35.410,3
2014-11-15 17:54:54.351,6168,205.6,40.10469,-88.22198,236.047,0,120.2344,8,10,1416095694,0.0164032,0.7647705,0.2457733,-13.88587,46.67737,-17.85776,163.4865,166.5688,25,-0.5004714,0.08823053,-0.1674985,-1.668494,-2.928725,-1.139973,-0.3221138,0.6349505,-0.06405493,0.2572341,-0.1699444,-0.1550188,172.17.160.76,10.64.29.0,2,unknown,2,2014-11-15 17:54:49.037,8,2014-11-15 17:52:35.410,3
2014-11-15 17:54:54.384,6169,205.6333,40.10469,-88.22198,236.047,0,120.2344,8,10,1416095694,-0.133728,0.9884338,0.5387878,-13.64482,46.64294,-17.89127,164.9596,168.0419,25,-0.4355419,-0.5519039,0.05604463,-1.666484,-2.920362,-1.127245,-0.4718623,-0.1696281,-0.1027601,0.1105717,-0.1384628,-0.1729174,172.17.160.76,10.64.29.0,2,unknown,2,2014-11-15 17:54:49.037,8,2014-11-15 17:52:35.410,3
2014-11-15 17:54:54.418,6170,205.6667,40.10469,-88.22198,236.047,0,120.2344,8,10,1416095694,0.002578735,0.869339,0.4578552,-13.78256,46.50513,-18.02542,165.5215,168.6038,25,-0.3597587,-0.4840391,0.04231896,-1.682149,-2.95933,-1.109128,-0.343741,-0.5326716,0.09334537,0.05850689,0.01826371,0.03164703,172.17.160.76,10.64.29.0,2,unknown,2,2014-11-15 17:54:49.037,8,2014-11-15 17:52:35.410,3
2014-11-15 17:54:54.451,6171,205.7,40.10469,-88.22198,236.047,0,120.2344,8,10,1416095694,-0.148941,1.054825,0.684433,-14.02361,46.53958,-17.32101,164.0159,167.0982,25,-0.1758885,-0.4268461,-0.1119833,-1.68565,-2.97392,-1.10138,-0.2088047,-0.3394495,-0.06111886,-0.02097165,-0.01971654,0.1627127,172.17.160.76,10.64.29.0,2,unknown,2,2014-11-15 17:54:49.037,8,2014-11-15 17:52:35.410,3
2014-11-15 17:54:54.484,6172,205.7333,40.10469,-88.22198,236.047,0,120.2344,8,10,1416095694,-0.01757812,0.9168854,0.3185425,-14.4713,46.64294,-16.68369,161.8078,164.8901,25,-0.333774,-0.07252108,-0.3388063,-1.675008,-2.973822,-1.096295,-0.2111084,-0.2011583,-0.3225681,0.00141963,0.1831111,0.05054261,172.17.160.76,10.64.29.0,2,unknown,2,2014-11-15 17:54:49.037,8,2014-11-15 17:52:35.410,3
2014-11-15 17:54:54.518,6173,205.7667,40.10469,-88.22198,236.047,0,120.2344,8,10,1416095694,-0.074646,0.9528198,0.5484619,-14.43686,46.95299,-16.31473,161.9629,165.0452,25,-0.3010208,-0.2559761,-0.2878824,-1.658856,-2.959157,-1.088617,-0.1492836,-0.005287485,-0.2708171,-0.01723526,0.0545346,-0.01352573,172.17.160.76,10.64.29.0,2,unknown,2,2014-11-15 17:54:49.037,8,2014-11-15 17:52:35.410,3
2014-11-15 17:54:54.551,6174,205.8,40.10469,-88.22198,236.047,0,120.2344,8,10,1416095694,-0.5116119,1.132904,0.5057831,-15.09116,46.71184,-15.81155,161.9349,165.0172,25,-0.2336349,-0.8224006,-0.1531248,-1.641475,-2.949939,-1.080145,0.1158461,0.04222064,-0.1537354,0.09137295,-0.08505936,-0.04136989,172.17.160.76,10.64.29.0,2,unknown,2,2014-11-15 17:54:49.037,8,2014-11-15 17:52:35.410,3
2014-11-15 17:54:54.584,6175,205.8333,40.10469,-88.22198,236.047,0,120.2344,8,10,1416095694,-0.09275818,0.9222565,0.6476288,-15.2289,46.43625,-15.61032,161.4409,164.5232,25,0.08700441,-0.3231789,0.4077044,-1.63568,-2.951675,-1.082476,-0.1673152,-0.7555161,-0.1388308,-0.4230483,0.2497817,0.04507561,172.17.160.76,10.64.29.0,2,unknown,2,2014-11-15 17:54:49.037,8,2014-11-15 17:52:35.410,3
2014-11-15 17:54:54.618,6176,205.8667,40.10469,-88.22198,236.047,0,120.2344,8,10,1416095694,0.04011536,0.9187622,0.3822784,-15.33221,46.26399,-15.17429,161.1578,164.2401,25,-0.06455423,-0.2401559,0.1348468,-1.650684,-2.975885,-1.0817,-0.262985,-0.008811584,-0.04006861,-0.0380411,0.02666598,0.313463,172.17.160.76,10.64.29.0,2,unknown,2,2014-11-15 17:54:49.037,8,2014-11-15 17:52:35.410,3
2014-11-15 17:54:54.651,6177,205.9,40.10469,-88.22198,236.047,0,120.2344,8,10,1416095694,0.07406616,0.8108673,0.3514557,-15.05671,46.95299,-14.8389,160.7089,163.7912,25,-0.2827356,0.2620689,-0.2098576,-1.656142,-2.983966,-1.078643,-0.1137439,0.02187649,-0.05539252,0.1142899,0.03744499,-0.08438856,172.17.160.76,10.64.29.0,2,unknown,2,2014-11-15 17:54:49.037,8,2014-11-15 17:52:35.410,3
2014-11-15 17:54:54.684,6178,205.9333,40.10469,-88.22198,236.047,0,120.2344,8,10,1416095694,-0.2693176,0.8835297,0.611145,-15.43551,47.26302,-14.4028,160.1742,163.2565,25,-0.1628385,-0.20393,-0.1405797,-1.646405,-2.966974,-1.071554,-0.1352791,0.3167791,-0.262871,0.1572426,-0.0670782,-0.1200243,172.17.160.76,10.64.29.0,2,unknown,2,2014-11-15 17:54:49.037,8,2014-11-15 17:52:35.410,3
2014-11-15 17:54:54.718,6179,205.9667,40.10469,-88.22198,236.047,0,120.2344,8,10,1416095694,-0.003326416,0.8528442,0.3480835,-16.02094,47.50418,-14.30215,161.2173,164.2996,25,-0.1619234,0.114762,-0.009404154,-1.640977,-2.966061,-1.065938,-0.1119301,0.03011943,0.05185353,-0.02109367,0.06210461,-0.1296023,172.17.160.76,10.64.29.0,2,unknown,2,2014-11-15 17:54:49.037,8,2014-11-15 17:52:35.410,3
2014-11-15 17:54:54.751,6180,206,40.10469,-88.22198,236.047,0,120.2344,8,10,1416095694,-0.0350647,0.96315,0.4619904,-16.81299,47.5386,-14.20157,161.7071,164.7894,25,-0.1379826,-0.04615791,-0.2120228,-1.639704,-2.95956,-1.063663,-0.03884214,0.1371818,-0.1187551,0.1091461,-0.03563938,0.05531003,172.17.160.76,10.64.29.0,2,unknown,2,2014-11-15 17:54:49.037,8,2014-11-15 17:52:35.410,3
2014-11-15 17:54:54.784,6181,206.0333,40.10469,-88.22198,236.047,0,120.2344,8,10,1416095694,0.01832581,0.9670563,0.3072968,-16.95074,47.5386,-14.46994,161.3527,164.435,25,-0.1499402,-0.1445825,-0.1604837,-1.636267,-2.956039,-1.062763,-0.07174083,0.02078345,-0.1977945,0.07332892,0.03901671,0.04926503,172.17.160.76,10.64.29.0,2,unknown,2,2014-11-15 17:54:49.037,8,2014-11-15 17:52:35.410,3
2014-11-15 17:54:54.818,6182,206.0667,40.10469,-88.22198,236.047,0,120.2344,8,10,1416095694,0.02526855,0.9469299,0.4848785,-16.813,47.26302,-14.73825,161.9195,165.0018,25,-0.1124474,-0.3558431,-0.2742537,-1.62188,-2.946928,-1.057555,-0.06124625,-0.1523387,-0.1870693,0.1503068,0.02637962,-0.1436712,172.17.160.76,10.64.29.0,2,unknown,2,2014-11-15 17:54:49.037,8,2014-11-15 17:52:35.410,3
2014-11-15 17:54:54.851,6183,206.1,40.10469,-88.22198,236.047,0,120.2344,8,10,1416095694,-0.05848694,0.9102478,0.3692932,-16.5375,46.84964,-14.73825,161.7199,164.8022,25,-0.1476691,-0.6069669,-0.3242724,-1.603584,-2.942383,-1.054312,-0.05664044,-0.519418,-0.3938857,0.1229942,0.07736936,0.0008185025,172.17.160.76,10.64.29.0,2,unknown,2,2014-11-15 17:54:49.037,8,2014-11-15 17:52:35.410,3
2014-11-15 17:54:54.884,6184,206.1333,40.10469,-88.22198,236.047,0,120.2344,8,10,1416095694,-0.05496216,0.8243561,0.4575958,-17.08849,46.43625,-14.67111,161.0428,164.1251,25,-0.1761476,-0.6481703,-0.4358383,-1.580307,-2.943827,-1.048469,-0.1092735,-0.5471478,-0.2696413,0.06454548,-0.004050532,-0.1427079,172.17.160.76,10.64.29.0,2,unknown,2,2014-11-15 17:54:49.037,8,2014-11-15 17:52:35.410,3
2014-11-15 17:54:54.918,6185,206.1667,40.10469,-88.22198,236.047,0,120.2344,8,10,1416095694,-0.2101135,0.8219452,0.4825134,-17.29511,46.16066,-14.60416,160.4813,163.5636,25,-0.1437942,-0.5543658,-0.5352448,-1.55824,-2.941933,-1.042892,-0.1011395,-0.5690591,-0.4980059,0.0449444,-0.03950825,-0.03612181,172.17.160.76,10.64.29.0,2,unknown,2,2014-11-15 17:54:49.037,8,2014-11-15 17:52:35.410,3
2014-11-15 17:54:54.951,6186,206.2,40.10469,-88.22198,236.047,0,120.2344,8,10,1416095694,-0.2040405,0.7160187,0.4513397,-18.43153,45.9884,-14.57059,159.6096,162.6919,25,-0.1515019,-0.4291908,-0.4220397,-1.524739,-2.926593,-1.036467,-0.07338499,-0.4350286,-0.477244,-0.1014632,-0.038665,-0.01502573,172.17.160.76,10.64.29.0,2,unknown,2,2014-11-15 17:54:49.037,8,2014-11-15 17:52:35.410,3
2014-11-15 17:54:54.984,6187,206.2333,40.10469,-88.22198,236.047,0,120.2344,8,10,1416095694,-0.2728729,0.7172852,0.5238495,-19.36134,45.95396,-14.67117,158.8678,161.9501,25,-0.2058016,-0.3367173,-0.4213494,-1.501854,-2.918014,-1.031222,-0.1108334,-0.3345985,-0.4065171,-0.09012684,-0.141909,-0.04964309,172.17.160.76,10.64.29.0,2,unknown,2,2014-11-15 17:54:49.037,8,2014-11-15 17:52:35.410,3
2014-11-15 17:54:55.018,6188,206.2667,40.10469,-88.22198,236.047,0,120.2344,8,10,1416095694,-0.3401184,0.810379,0.5711212,-19.80901,46.05731,-14.30228,158.7519,161.8342,25,-0.1113734,-0.1493314,-0.224342,-1.470655,-2.903358,-1.021188,-0.07917024,-0.1528385,-0.2549483,-0.2119516,-0.08025306,0.05178734,172.17.160.76,10.64.29.0,2,unknown,2,2014-11-15 17:54:49.037,8,2014-11-15 17:52:35.410,3
2014-11-15 17:54:55.051,6189,206.3,40.10469,-88.22198,236.047,0,120.2344,8,10,1416095694,-0.2491455,0.9036865,0.521759,-20.60105,45.88507,-14.20169,160.1775,163.2598,25,-0.1240231,0.08772293,-0.21137,-1.459938,-2.894981,-1.018641,-0.03334909,0.07288101,-0.1913039,-0.1807302,0.03616222,0.05669897,172.17.160.76,10.64.29.0,2,unknown,2,2014-11-15 17:54:49.037,8,2014-11-15 17:52:35.410,3
2014-11-15 17:54:55.084,6190,206.3333,40.10469,-88.22198,236.047,0,120.2344,8,10,1416095694,-0.1167755,0.7514191,0.4323273,-20.94542,45.60948,-14.26877,159.8419,162.9242,25,-0.1910238,0.2981435,-0.2110726,-1.453242,-2.88569,-1.016375,-0.08861528,0.2513376,-0.2018335,-0.115891,0.05348123,0.01245145,172.17.160.76,10.64.29.0,2,unknown,2,2014-11-15 17:54:49.037,8,2014-11-15 17:52:35.410,3
2014-11-15 17:54:55.118,6191,206.3667,40.10469,-88.22198,236.0148,0,120.2344,8,10,1416095695,-0.1336823,0.7855988,0.4865723,-21.63416,45.26498,-14.60422,163.0692,166.1515,25,-0.4574549,0.5216307,-0.1812995,-1.443556,-2.85836,-1.006892,-0.3080379,0.5980385,-0.1747722,0.05952536,-0.1364652,-0.09374536,172.17.160.76,10.64.29.0,2,unknown,2,2014-11-15 17:54:49.037,8,2014-11-15 17:52:35.410,3
2014-11-15 17:54:55.151,6192,206.4,40.10469,-88.22198,236.0148,0,120.2344,8,10,1416095695,-0.2228241,0.9208069,0.6326904,-21.87521,45.02383,-15.04025,165.6227,168.705,25,-0.5146985,0.3521141,0.02182673,-1.443975,-2.837294,-0.9871194,-0.5589404,0.4628373,-0.0832573,0.001318649,0.001465027,0.01211059,172.17.160.76,10.64.29.0,2,unknown,2,2014-11-15 17:54:49.037,8,2014-11-15 17:52:35.410,3
2014-11-15 17:54:55.184,6193,206.4333,40.10469,-88.22198,236.0148,0,120.2344,8,10,1416095695,-0.2309113,0.9384766,0.65625,-22.46064,44.78268,-15.07376,167.4481,170.5304,25,-0.3126538,0.2564028,0.1649277,-1.449064,-2.832805,-0.9773976,-0.4484647,0.4190553,0.03604588,-0.05288656,0.0917619,0.0999563,172.17.160.76,10.64.29.0,2,unknown,2,2014-11-15 17:54:49.037,8,2014-11-15 17:52:35.410,3
