time,timestamp,recordtime,lat,long,alt,speed,course,verticalAccuracy,horizontalAccuracy,locTimeStamp,accelerationX,accelerationY,accelerationZ,HeadingX,HeadingY,HeadingZ,TrueHeading,MagneticHeading,HeadingAccuracy,RotationX,RotationY,RotationZ,motionYaw,motionRoll,motionPitch,motionRotationRateX,motionRotationRateY,motionRotationRateZ,motionUserAccelerationX,motionUserAccelerationY,motionUserAccelerationZ,en0,pdp_ip0,DeviceOrientation,Activity,Activity Confidence,Activity Start,Steps,Last Step Date,State
2014-11-15 17:55:37.551,7464,248.8,40.10466,-88.22186,235.7058,0.59,64.6875,8,10,1416095737,-0.1716156,0.8358459,0.4840851,-19.01489,45.60391,-15.7164,169.1642,172.2465,15,-0.1264948,0.2493273,-0.05765637,-1.467386,-2.839449,-1.042691,-0.08622982,0.2400598,-0.04262731,-0.03061381,-0.0167938,-0.004859914,172.17.160.76,10.64.29.0,2,unknown,2,2014-11-15 17:55:36.064,8,2014-11-15 17:52:35.410,3
2014-11-15 17:55:37.584,7465,248.8333,40.10466,-88.22186,235.7058,0.59,64.6875,8,10,1416095737,-0.1493988,0.8232422,0.4506683,-18.91191,45.50066,-15.95169,170.3483,173.4306,15,-0.1468299,0.2921211,-0.02020301,-1.464681,-2.827455,-1.039706,-0.05421746,0.3400339,-0.02842617,-0.01209584,-0.03429847,0.0005506349,172.17.160.76,10.64.29.0,2,unknown,2,2014-11-15 17:55:36.064,8,2014-11-15 17:52:35.410,3
2014-11-15 17:55:37.619,7466,248.8667,40.10466,-88.22186,235.7058,0.59,64.6875,8,10,1416095737,-0.1264191,0.8368835,0.4347382,-19.08354,45.74158,-16.92648,171.6963,174.7786,15,-0.2140359,0.2635203,-0.01267159,-1.466953,-2.811623,-1.035022,-0.1385233,0.34455,0.001634011,0.03064567,-0.02968891,-0.0463967,172.17.160.76,10.64.29.0,2,unknown,2,2014-11-15 17:55:36.064,8,2014-11-15 17:52:35.410,3
2014-11-15 17:55:37.651,7467,248.9,40.10466,-88.22186,235.7058,0.59,64.6875,8,10,1416095737,-0.1082611,0.8672638,0.4391632,-19.49545,45.81039,-17.2626,172.0459,175.1282,15,-0.1980976,0.2104142,-0.008764996,-1.46919,-2.810582,-1.035033,-0.1470633,0.3307552,0.0037211,0.03949217,-0.02299573,-0.04804657,172.17.160.76,10.64.29.0,2,unknown,2,2014-11-15 17:55:36.064,8,2014-11-15 17:52:35.410,3
2014-11-15 17:55:37.684,7468,248.9333,40.10466,-88.22186,235.7058,0.59,64.6875,8,10,1416095737,-0.1182404,0.9307709,0.4737396,-19.32383,45.70715,-17.83408,173.1909,176.2732,15,-0.1312736,0.06750474,0.06665892,-1.476982,-2.807729,-1.032928,-0.08865166,0.1950278,0.04525809,0.0680274,0.04311379,-0.02558343,172.17.160.76,10.64.29.0,2,unknown,2,2014-11-15 17:55:36.064,8,2014-11-15 17:52:35.410,3
2014-11-15 17:55:37.717,7469,248.9667,40.10466,-88.22186,235.7058,0.59,64.6875,8,10,1416095737,-0.1070557,0.8996582,0.4407043,-19.32383,45.56949,-17.76682,173.1944,176.2767,15,-0.1072239,-0.08889365,0.1825083,-1.484502,-2.811607,-1.032642,-0.03480933,0.01001176,0.1725214,0.04784168,0.07211445,-0.01115821,172.17.160.76,10.64.29.0,2,unknown,2,2014-11-15 17:55:36.064,8,2014-11-15 17:52:35.410,3
2014-11-15 17:55:37.751,7470,249,40.10466,-88.22186,235.7058,0.59,64.6875,8,10,1416095737,-0.07406616,0.9024811,0.4670105,-19.39248,45.56947,-17.69962,172.1615,175.2438,15,-0.1655554,-0.03213104,0.09704559,-1.5053,-2.831234,-1.037652,-0.09973206,0.02791893,0.1484639,0.06711325,0.03873472,-0.05122253,172.17.160.76,10.64.29.0,2,unknown,2,2014-11-15 17:55:36.064,8,2014-11-15 17:52:35.410,3
2014-11-15 17:55:37.784,7471,249.0333,40.10466,-88.22186,235.7058,0.59,64.6875,8,10,1416095737,-0.09350586,0.9048309,0.5236511,-19.25518,45.77597,-17.16177,171.1589,174.2412,15,-0.02348615,-0.120206,-0.01965173,-1.511556,-2.835818,-1.036236,-0.03760198,0.007977837,0.04410094,0.07607874,0.03973003,0.004632469,172.17.160.76,10.64.29.0,2,unknown,2,2014-11-15 17:55:36.064,8,2014-11-15 17:52:35.410,3
2014-11-15 17:55:37.818,7472,249.0667,40.10466,-88.22186,235.7058,0.59,64.6875,8,10,1416095737,-0.1064453,0.8605347,0.5106659,-19.35817,45.87921,-17.12814,170.5263,173.6086,15,0.04594619,-0.2387567,-0.09590123,-1.514524,-2.842313,-1.038692,0.09046671,-0.1297756,-0.03776515,0.04220629,0.03550584,0.04596615,172.17.160.76,10.64.29.0,2,unknown,2,2014-11-15 17:55:36.064,8,2014-11-15 17:52:35.410,3
2014-11-15 17:55:37.851,7473,249.1,40.10466,-88.22186,235.7058,0.59,64.6875,8,10,1416095737,-0.1133423,0.8254395,0.4759827,-19.11788,45.63832,-16.75839,170.087,173.1693,15,0.01300288,-0.2741336,-0.1394849,-1.51163,-2.845725,-1.040768,0.110851,-0.1833524,-0.09543668,0.04115859,-0.02110281,0.01323537,172.17.160.76,10.64.29.0,2,unknown,2,2014-11-15 17:55:36.064,8,2014-11-15 17:52:35.410,3
2014-11-15 17:55:37.885,7474,249.1333,40.10466,-88.22186,235.7058,0.59,64.6875,8,10,1416095737,-0.1520691,0.8414917,0.4738312,-19.35816,45.39742,-16.92648,169.6725,172.7548,15,-0.006178267,-0.2847899,-0.1447766,-1.508121,-2.847242,-1.041712,0.07999876,-0.2069252,-0.1230395,0.03309316,-0.03783021,-0.007051639,172.17.160.76,10.64.29.0,2,unknown,2,2014-11-15 17:55:36.064,8,2014-11-15 17:52:35.410,3
2014-11-15 17:55:37.918,7475,249.1667,40.10466,-88.22186,235.7058,0.59,64.6875,8,10,1416095737,-0.207077,0.8846436,0.4780731,-19.56412,45.3286,-17.19534,169.1853,172.2676,15,-0.04796087,-0.286383,-0.07669371,-1.495443,-2.847382,-1.041604,0.01799971,-0.2362862,-0.0751989,-0.04022023,0.005589926,-0.002248319,172.17.160.76,10.64.29.0,2,unknown,2,2014-11-15 17:55:36.064,8,2014-11-15 17:52:35.410,3
2014-11-15 17:55:37.951,7476,249.2,40.10466,-88.22186,235.7058,0.59,64.6875,8,10,1416095737,-0.2037811,0.8414764,0.4759521,-19.77008,45.19092,-17.3298,168.7751,171.8574,15,-0.04477866,-0.19266,-0.04755207,-1.488616,-2.846376,-1.041719,0.02008139,-0.1605659,-0.03872627,-0.06007287,0.01912742,-0.007407455,172.17.160.76,10.64.29.0,2,unknown,2,2014-11-15 17:55:36.064,8,2014-11-15 17:52:35.410,3
2014-11-15 17:55:37.984,7477,249.2334,40.10466,-88.22186,235.7058,0.59,64.6875,8,10,1416095737,-0.2066803,0.8180847,0.4789886,-19.87305,45.36299,-17.02731,168.6445,171.7268,15,-0.06185405,-0.09785625,-0.0172674,-1.482842,-2.844054,-1.041284,0.01474405,-0.05089517,-0.009478551,-0.05627828,-0.03270053,-0.006722441,172.17.160.76,10.64.29.0,2,unknown,2,2014-11-15 17:55:36.064,8,2014-11-15 17:52:35.410,3
2014-11-15 17:55:38.018,7478,249.2667,40.10466,-88.22186,235.7058,0.59,64.6875,8,10,1416095737,-0.2080231,0.8448029,0.4774323,-19.8044,45.56949,-16.75839,168.9325,172.0148,15,-0.1023493,-0.04783783,-0.009421998,-1.482822,-2.844543,-1.041299,-0.01084893,-0.009345326,0.003573801,-0.0588375,-0.04497626,-0.003989875,172.17.160.76,10.64.29.0,2,unknown,2,2014-11-15 17:55:36.064,8,2014-11-15 17:52:35.410,3
2014-11-15 17:55:38.051,7479,249.3,40.10466,-88.22186,235.7058,0.59,64.6875,8,10,1416095737,-0.1999207,0.8568115,0.4808502,-20.01035,45.77597,-16.95999,168.851,171.9333,15,-0.1480853,0.104161,-0.005265868,-1.48051,-2.83985,-1.038889,-0.0779124,0.1140089,0.009851216,-0.05584782,-0.00876796,-0.001918526,172.17.160.76,10.64.29.0,2,unknown,2,2014-11-15 17:55:36.064,8,2014-11-15 17:52:35.410,3
2014-11-15 17:55:38.085,7480,249.3333,40.10466,-88.22186,235.7058,0.59,64.6875,8,10,1416095737,-0.161377,0.852829,0.487915,-19.9417,45.50066,-17.09445,169.9291,173.0114,15,-0.1310091,0.1509469,0.0002239718,-1.480981,-2.831149,-1.035918,-0.05757615,0.2447412,0.01576526,-0.01358156,-0.02088363,-0.005771064,172.17.160.76,10.64.29.0,2,unknown,2,2014-11-15 17:55:36.064,8,2014-11-15 17:52:35.410,3
2014-11-15 17:55:38.118,7481,249.3667,40.10466,-88.22185,235.7833,0.39,78.75,8,10,1416095738,-0.1564789,0.8938446,0.5080261,-19.87304,45.29416,-17.09445,170.2645,173.3468,15,-0.1139865,0.164864,0.01509426,-1.483614,-2.824538,-1.0335,-0.06615322,0.2118604,0.02305373,-0.005729899,0.03014103,0.01874527,172.17.160.76,10.64.29.0,2,unknown,2,2014-11-15 17:55:36.064,8,2014-11-15 17:52:35.410,3
2014-11-15 17:55:38.151,7482,249.4,40.10466,-88.22185,235.7833,0.39,78.75,8,10,1416095738,-0.09922791,0.8763733,0.5014496,-19.87305,45.01883,-16.75839,170.757,173.8394,15,-0.09896813,0.1699459,-0.01465671,-1.486011,-2.822312,-1.032683,-0.0469748,0.232103,0.03158174,0.004391929,0.03516755,0.02141099,172.17.160.76,10.64.29.0,2,unknown,2,2014-11-15 17:55:36.064,8,2014-11-15 17:52:35.410,3
2014-11-15 17:55:38.184,7483,249.4333,40.10466,-88.22185,235.7833,0.39,78.75,8,10,1416095738,-0.1368866,0.9212799,0.5408936,-19.59845,45.01881,-17.63229,171.7912,174.8735,15,-0.06694228,0.01971165,-0.06758038,-1.490685,-2.818763,-1.031886,-0.02334322,0.176278,-0.04203267,0.07055935,0.02275905,0.02261767,172.17.160.76,10.64.29.0,2,unknown,2,2014-11-15 17:55:36.064,8,2014-11-15 17:52:35.410,3
2014-11-15 17:55:38.217,7484,249.4667,40.10466,-88.22185,235.7833,0.39,78.75,8,10,1416095738,-0.1257477,0.8991089,0.5234985,-19.35817,45.05322,-17.80038,171.8107,174.893,15,0.03623497,-0.09154563,-0.01972444,-1.489243,-2.815002,-1.031791,0.05959265,0.004307465,-0.01458463,0.01803211,0.07525206,0.0537656,172.17.160.76,10.64.29.0,2,unknown,2,2014-11-15 17:55:36.064,8,2014-11-15 17:52:35.410,3
2014-11-15 17:55:38.251,7485,249.5,40.10466,-88.22185,235.7833,0.39,78.75,8,10,1416095738,-0.04226685,0.8226166,0.4931335,-19.70143,44.84673,-17.86765,171.9781,175.0604,15,-0.05019766,-0.3361565,-0.05465632,-1.490014,-2.820397,-1.035011,0.06167344,-0.1776301,-0.0452611,0.07852908,-0.02618854,0.01940631,172.17.160.76,10.64.29.0,2,unknown,2,2014-11-15 17:55:36.064,8,2014-11-15 17:52:35.410,3
2014-11-15 17:55:38.284,7486,249.5333,40.10466,-88.22185,235.7833,0.39,78.75,8,10,1416095738,-0.05804443,0.8618317,0.5694885,-19.35817,44.5714,-17.80045,172.0999,175.1822,15,-0.1146488,-0.6393813,0.02996829,-1.48879,-2.825376,-1.034966,-0.02174661,-0.3919707,-0.0110486,0.116502,-0.03722836,0.007892239,172.17.160.76,10.64.29.0,2,unknown,2,2014-11-15 17:55:36.064,8,2014-11-15 17:52:35.410,3
2014-11-15 17:55:38.318,7487,249.5667,40.10466,-88.22185,235.7833,0.39,78.75,8,10,1416095738,-0.04907227,0.9449005,0.654007,-19.59845,44.74345,-17.16183,170.9506,174.0329,15,0.2427154,-1.334254,0.4814082,-1.50016,-2.858489,-1.033341,-0.06771445,-1.007521,0.2257859,0.05475033,0.02240969,0.1883897,172.17.160.76,10.64.29.0,2,unknown,2,2014-11-15 17:55:36.064,8,2014-11-15 17:52:35.410,3
2014-11-15 17:55:38.351,7488,249.6,40.10466,-88.22185,235.7833,0.39,78.75,8,10,1416095738,-0.3223572,0.706543,0.2149811,-18.80896,45.53503,-16.3215,168.0651,171.1474,15,0.6689938,-1.423526,0.5058789,-1.523082,-2.915372,-1.04399,0.54064,-1.321494,0.6188487,0.0002672955,0.08034606,0.08571841,172.17.160.76,10.64.29.0,2,unknown,2,2014-11-15 17:55:36.064,8,2014-11-15 17:52:35.410,3
2014-11-15 17:55:38.384,7489,249.6333,40.10466,-88.22185,235.7833,0.39,78.75,8,10,1416095738,-0.5406799,0.5930481,0.2939606,-18.50002,45.84479,-15.48117,161.4843,164.5666,15,0.573238,-0.3151766,0.3719584,-1.553028,-2.991569,-1.076715,0.8038634,-0.9312189,0.3948838,-0.3066091,-0.2108338,-0.2744384,172.17.160.76,10.64.29.0,2,unknown,2,2014-11-15 17:55:36.064,8,2014-11-15 17:52:35.410,3
2014-11-15 17:55:38.418,7490,249.6667,40.10466,-88.22185,235.7833,0.39,78.75,8,10,1416095738,-0.2267303,0.9063568,0.5939026,-18.29407,46.05128,-15.48117,158.8237,161.906,15,0.09692229,0.9625724,0.2743224,-1.57927,-3.021221,-1.101707,0.3146074,0.4363298,0.3688883,-0.4004566,-0.2165498,0.04089691,172.17.160.76,10.64.29.0,2,unknown,2,2014-11-15 17:55:36.064,8,2014-11-15 17:52:35.410,3
2014-11-15 17:55:38.451,7491,249.7,40.10466,-88.22185,235.7833,0.39,78.75,8,10,1416095738,-0.03486633,1.04248,0.6351471,-18.25973,46.01686,-15.7164,157.0473,160.1296,15,0.07915154,1.145876,0.2042349,-1.592404,-3.016611,-1.106359,0.1639188,1.029784,0.2908435,-0.1708942,0.01228303,0.1494767,172.17.160.76,10.64.29.0,2,unknown,2,2014-11-15 17:55:36.064,8,2014-11-15 17:52:35.410,3
2014-11-15 17:55:38.484,7492,249.7334,40.10466,-88.22185,235.7833,0.39,78.75,8,10,1416095738,0.1372986,0.9486389,0.3583984,-17.33294,46.46426,-17.63229,159.5826,162.6649,15,0.02363449,1.173252,-0.1149191,-1.599297,-2.970272,-1.114131,0.2345187,1.408674,-0.04603847,0.1570854,0.1479586,0.04816375,172.17.160.76,10.64.29.0,2,unknown,2,2014-11-15 17:55:36.064,8,2014-11-15 17:52:35.410,3
2014-11-15 17:55:38.518,7493,249.7667,40.10466,-88.22185,235.7833,0.39,78.75,8,10,1416095738,0.1332092,1.022186,0.4433594,-16.98968,46.39543,-18.17014,160.3018,163.3841,15,0.04921548,0.2348104,0.001052215,-1.590451,-2.917716,-1.117201,0.04204678,0.6543545,-0.04504417,0.2138474,0.06581374,0.04526974,172.17.160.76,10.64.29.0,2,unknown,2,2014-11-15 17:55:36.064,8,2014-11-15 17:52:35.410,3
2014-11-15 17:55:38.551,7494,249.8,40.10466,-88.22185,235.7833,0.39,78.75,8,10,1416095738,-0.1878662,0.7472992,0.310379,-16.33749,46.22334,-18.94321,165.7976,168.8799,15,0.3488515,-0.3803223,0.172897,-1.590924,-2.914981,-1.124036,0.3766955,-0.1871382,0.1244159,0.2213993,0.1052589,-0.06475285,172.17.160.76,10.64.29.0,2,unknown,2,2014-11-15 17:55:36.064,8,2014-11-15 17:52:35.410,3
2014-11-15 17:55:38.584,7495,249.8333,40.10466,-88.22185,235.7833,0.39,78.75,8,10,1416095738,-0.1289368,0.9371185,0.5887756,-16.02855,46.05128,-19.38022,164.9753,168.0576,15,0.14635,-0.674706,0.4353525,-1.602785,-2.937845,-1.136419,0.2840005,-0.5465236,0.3691342,-0.1027121,-0.159833,-0.1017617,172.17.160.76,10.64.29.0,2,unknown,2,2014-11-15 17:55:36.064,8,2014-11-15 17:52:35.410,3
2014-11-15 17:55:38.618,7496,249.8667,40.10466,-88.22185,235.7833,0.39,78.75,8,10,1416095738,-0.1156464,1.16246,0.3887329,-15.92557,45.8792,-19.41373,163.6052,166.6875,15,0.3328379,0.117439,-0.04627163,-1.634384,-2.986102,-1.147667,0.2752763,-0.1803454,0.1736594,0.006369445,0.1575885,0.1639945,172.17.160.76,10.64.29.0,2,unknown,2,2014-11-15 17:55:36.064,8,2014-11-15 17:52:35.410,3
2014-11-15 17:55:38.651,7497,249.9,40.10466,-88.22185,235.7833,0.39,78.75,8,10,1416095738,-0.1492157,0.9117889,0.4045563,-15.445,45.53503,-19.41373,161.5753,164.6576,15,0.4372128,0.7516005,-0.2057297,-1.627977,-2.974805,-1.155855,0.5028937,0.5373085,-0.1790104,-0.0487194,0.2473205,-0.008809332,172.17.160.76,10.64.29.0,2,unknown,2,2014-11-15 17:55:36.064,8,2014-11-15 17:52:35.410,3
2014-11-15 17:55:38.685,7498,249.9333,40.10466,-88.22185,235.7833,0.39,78.75,8,10,1416095738,-0.03559875,1.047348,0.3100586,-15.47934,45.43179,-19.58182,161.8864,164.9687,15,0.3891113,0.8488246,-0.1381643,-1.602059,-2.918952,-1.174057,0.460205,0.8472413,-0.08486962,-0.004780749,0.00449319,0.01800627,172.17.160.76,10.64.29.0,2,unknown,2,2014-11-15 17:55:36.064,8,2014-11-15 17:52:35.410,3
2014-11-15 17:55:38.717,7499,249.9667,40.10466,-88.22185,235.7833,0.39,78.75,8,10,1416095738,0.03971863,0.9866638,0.2923737,-15.13607,44.33047,-20.72464,164.5338,167.6161,15,0.330008,0.5306487,-0.06319175,-1.576062,-2.857989,-1.189992,0.4016685,0.8150885,-0.1251562,0.07360366,0.09443079,-0.1372925,172.17.160.76,10.64.29.0,2,unknown,2,2014-11-15 17:55:36.064,8,2014-11-15 17:52:35.410,3
2014-11-15 17:55:38.751,7500,250,40.10466,-88.22185,235.7833,0.39,78.75,8,10,1416095738,0.067276,1.122864,0.6300964,-14.62119,43.47006,-21.96835,167.5957,170.678,15,0.4541166,0.156335,0.04688948,-1.561968,-2.826239,-1.200794,0.4213769,0.5268734,-0.01741518,0.1410874,0.09762654,0.1165878,172.17.160.76,10.64.29.0,2,unknown,2,2014-11-15 17:55:36.064,8,2014-11-15 17:52:35.410,3
2014-11-15 17:55:38.784,7501,250.0333,40.10466,-88.22185,235.7833,0.39,78.75,8,10,1416095738,-0.06311035,0.8730011,0.0422821,-13.83168,43.02264,-22.47244,169.6768,172.7591,15,0.7599825,-0.3993027,-0.06439151,-1.551354,-2.808461,-1.215933,0.6926082,0.03323471,0.05964222,0.2201278,0.2074477,0.2308441,172.17.160.76,10.64.29.0,2,unknown,2,2014-11-15 17:55:36.064,8,2014-11-15 17:52:35.410,3
2014-11-15 17:55:38.818,7502,250.0667,40.10466,-88.22185,235.7833,0.39,78.75,8,10,1416095738,-0.2678223,0.8397675,0.2471313,-13.45411,42.9194,-22.90945,170.0699,173.1523,15,0.3341447,-0.3627619,0.1051096,-1.52006,-2.791812,-1.243226,0.5313438,-0.4482274,0.03329652,-0.06617851,-0.1703375,-0.2527469,172.17.160.76,10.64.29.0,2,unknown,2,2014-11-15 17:55:36.064,8,2014-11-15 17:52:35.410,3
2014-11-15 17:55:38.851,7503,250.1,40.10466,-88.22185,235.7833,0.39,78.75,8,10,1416095738,-0.1065979,1.036591,0.3872528,-13.28247,42.67848,-23.14474,169.9177,173,15,0.3811087,0.3519463,-0.08555378,-1.518524,-2.794713,-1.251101,0.3033106,-0.01934216,0.1085896,-0.1609792,-0.1095638,-0.0484268,172.17.160.76,10.64.29.0,2,unknown,2,2014-11-15 17:55:36.064,8,2014-11-15 17:52:35.410,3
2014-11-15 17:55:38.884,7504,250.1333,40.10466,-88.22185,235.7833,0.39,78.75,8,10,1416095738,-0.112381,0.8398895,0.2445831,-13.00785,41.99017,-23.48093,169.2689,172.3512,15,0.5471438,0.02145016,-0.08048552,-1.473408,-2.735647,-1.27432,0.6836905,0.1944259,-0.1241738,0.07305449,0.08887042,0.06099803,172.17.160.76,10.64.29.0,2,unknown,2,2014-11-15 17:55:36.064,8,2014-11-15 17:52:35.410,3
2014-11-15 17:55:38.918,7505,250.1667,40.10466,-88.22185,235.7833,0.39,78.75,8,10,1416095738,-0.05915833,0.7795258,0.07885742,-12.73324,41.50835,-23.48093,169.8931,172.9754,15,0.2130377,-0.3009505,-0.01936624,-1.448273,-2.711045,-1.288284,0.3653529,-0.1167819,0.01337202,-0.00500372,-0.1951452,-0.06829973,172.17.160.76,10.64.29.0,2,unknown,2,2014-11-15 17:55:36.064,8,2014-11-15 17:52:35.410,3
2014-11-15 17:55:38.951,7506,250.2,40.10466,-88.22185,235.7833,0.39,78.75,8,10,1416095738,-0.1747742,0.7768402,0.2697601,-12.21835,40.85442,-23.91782,170.5305,173.6128,15,0.1920009,-0.3272013,-0.1202665,-1.43295,-2.705065,-1.294886,0.2343481,-0.3469738,-0.08500607,0.01749252,-0.129124,-0.09035182,172.17.160.76,10.64.29.0,2,unknown,2,2014-11-15 17:55:36.064,8,2014-11-15 17:52:35.410,3
2014-11-15 17:55:38.984,7507,250.2334,40.10466,-88.22185,235.7833,0.39,78.75,8,10,1416095738,-0.03335571,0.9003296,0.09075928,-12.04672,41.0265,-23.74973,170.5158,173.5981,15,0.04317224,-0.2153299,-0.2305757,-1.411167,-2.68998,-1.300592,0.2430711,-0.1047373,-0.08800915,-0.03923906,-0.2041033,0.007788036,172.17.160.76,10.64.29.0,2,unknown,2,2014-11-15 17:55:36.064,8,2014-11-15 17:52:35.410,3
2014-11-15 17:55:39.018,7508,250.2667,40.10466,-88.22185,235.7833,0.39,78.75,8,10,1416095738,-0.1558075,0.7236633,0.1090851,-12.38998,41.4395,-23.95145,170.182,173.2643,15,-0.1644457,-0.1914014,-0.3114063,-1.375523,-2.661924,-1.299999,-0.02818914,-0.2061404,-0.3072543,0.05501157,-0.05128071,-0.1694255,172.17.160.76,10.64.29.0,2,unknown,2,2014-11-15 17:55:36.064,8,2014-11-15 17:52:35.410,3
2014-11-15 17:55:39.051,7509,250.3,40.10466,-88.22185,235.7833,0.39,78.75,8,10,1416095738,-0.1623688,0.7675934,0.238327,-12.97351,41.26743,-24.11948,169.6868,172.7691,15,-0.2668333,-0.1795258,-0.2929152,-1.351057,-2.642706,-1.293288,-0.1550327,-0.1347952,-0.2947274,-0.05088517,-0.3041176,-0.0970603,172.17.160.76,10.64.29.0,2,unknown,2,2014-11-15 17:55:36.064,8,2014-11-15 17:52:35.410,3
2014-11-15 17:55:39.084,7510,250.3333,40.10466,-88.22185,235.7833,0.39,78.75,8,10,1416095738,-0.1470795,0.9242401,0.2789764,-13.66003,40.64792,-24.18668,169.359,172.4413,15,-0.2347691,-0.244688,-0.3368992,-1.339892,-2.634463,-1.287281,-0.1998243,-0.1123106,-0.2763291,-0.02651115,-0.1924846,-0.006198928,172.17.160.76,10.64.29.0,2,unknown,2,2014-11-15 17:55:36.064,8,2014-11-15 17:52:35.410,3
2014-11-15 17:55:39.118,7511,250.3667,40.10466,-88.22185,235.7833,0.39,78.75,8,10,1416095738,-0.03314209,0.8362732,0.1465912,-14.14059,39.82191,-23.78329,169.5778,172.6601,15,-0.4425348,-0.3619817,-0.4046737,-1.307136,-2.61292,-1.270202,-0.2870871,-0.2510528,-0.3627132,0.07358325,-0.08551645,-0.06924883,172.17.160.76,10.64.29.0,2,unknown,2,2014-11-15 17:55:36.064,8,2014-11-15 17:52:35.410,3
2014-11-15 17:55:39.151,7512,250.4,40.10465,-88.22184,235.7332,0.29,98.78906,12,10,1416095739,-0.02127075,0.9479523,0.1824951,-15.20469,40.13165,-22.60684,169.525,172.6073,15,-0.6332068,-0.7114581,-0.5437927,-1.288429,-2.610026,-1.245683,-0.5406237,-0.5260604,-0.4937744,0.140926,-0.07499506,-0.07755644,172.17.160.76,10.64.29.0,2,unknown,2,2014-11-15 17:55:36.064,8,2014-11-15 17:52:35.410,3
2014-11-15 17:55:39.183,7513,250.4333,40.10465,-88.22184,235.7332,0.29,98.78906,12,10,1416095739,-0.03738403,0.8943329,0.2048035,-16.09717,40.61348,-21.86746,169.9462,173.0285,15,-0.787559,-0.9419015,-0.6771135,-1.272001,-2.616117,-1.221601,-0.6545515,-0.8361555,-0.6191742,0.1464805,0.01729147,-0.1303174,172.17.160.76,10.64.29.0,2,unknown,2,2014-11-15 17:55:36.064,8,2014-11-15 17:52:35.410,3
2014-11-15 17:55:39.218,7514,250.4667,40.10465,-88.22184,235.7332,0.29,98.78906,12,10,1416095739,-0.2127838,0.8845062,0.2925873,-16.88667,40.99207,-20.95993,169.6724,172.7547,15,-0.9729422,-0.9931892,-0.7265791,-1.254911,-2.62612,-1.191321,-0.8494146,-0.8749513,-0.7035675,0.1144119,-0.07067437,-0.07991305,172.17.160.76,10.64.29.0,2,unknown,2,2014-11-15 17:55:36.064,8,2014-11-15 17:52:35.410,3
2014-11-15 17:55:39.251,7515,250.5,40.10465,-88.22184,235.7332,0.29,98.78906,12,10,1416095739,-0.2343903,0.9329071,0.3267517,-18.05375,41.12973,-20.28769,169.081,172.1633,15,-0.9892128,-1.037195,-0.6450158,-1.246079,-2.636715,-1.168549,-0.9358858,-0.9746811,-0.6889082,-0.02342131,-0.03567738,-0.05005536,172.17.160.76,10.64.29.0,2,unknown,2,2014-11-15 17:55:36.064,8,2014-11-15 17:52:35.410,3
2014-11-15 17:55:39.285,7516,250.5333,40.10465,-88.22184,235.7332,0.29,98.78906,12,10,1416095739,-0.278595,0.7505188,0.3912811,-21.21173,41.06091,-17.19528,167.2661,170.3484,15,-0.8541088,-0.7533646,-0.4784358,-1.235416,-2.670586,-1.118204,-0.7572321,-0.7394491,-0.4824111,-0.1233536,-0.06800225,0.1027648,172.17.160.76,10.64.29.0,2,unknown,2,2014-11-15 17:55:36.064,8,2014-11-15 17:52:35.410,3
2014-11-15 17:55:39.318,7517,250.5667,40.10465,-88.22184,235.7332,0.29,98.78906,12,10,1416095739,-0.2254639,0.7541199,0.3220673,-22.00124,41.16414,-16.08609,166.6225,169.7048,15,-1.228886,-0.5233516,-0.576662,-1.232965,-2.687397,-1.089257,-0.96073,-0.5533446,-0.4743003,-0.03251827,-0.1548378,-0.1345258,[inet_ntoa er,10.64.29.0,2,unknown,2,2014-11-15 17:55:36.064,8,2014-11-15 17:52:35.410,3
2014-11-15 17:55:39.351,7518,250.6,40.10465,-88.22184,235.7332,0.29,98.78906,12,10,1416095739,-0.295578,0.910141,0.57341,-23.51158,41.64598,-14.13657,166.0934,169.1757,15,-1.135615,-0.4565739,-0.7337589,-1.23182,-2.70048,-1.051857,-1.148796,-0.4430358,-0.6534672,-0.02886836,-0.0498492,-0.04281439,172.17.160.76,10.64.29.0,2,unknown,2,2014-11-15 17:55:36.064,8,2014-11-15 17:52:35.410,3
2014-11-15 17:55:39.385,7519,250.6333,40.10465,-88.22184,235.7332,0.29,98.78906,12,10,1416095739,-0.2057648,0.7903748,0.3746643,-24.43839,41.68039,-12.01895,167.1167,170.1991,15,-1.19351,-0.3269078,-0.5916822,-1.221571,-2.703369,-1.013726,-1.033584,-0.3432171,-0.6544346,-0.08434012,0.04297726,0.09320182,172.17.160.76,10.64.29.0,2,unknown,2,2014-11-15 17:55:36.064,8,2014-11-15 17:52:35.410,3
2014-11-15 17:55:39.418,7520,250.6667,40.10465,-88.22184,235.7332,0.29,98.78906,12,10,1416095739,-0.3342133,0.837616,0.6261139,-25.12491,41.19855,-11.34671,167.7016,170.7839,15,-1.34569,-0.5159347,-0.7279775,-1.216106,-2.710894,-0.9615794,-1.271214,-0.3731633,-0.6951004,0.01231425,-0.01737728,-0.1362996,172.17.160.76,10.64.29.0,2,unknown,2,2014-11-15 17:55:36.064,8,2014-11-15 17:52:35.410,3
2014-11-15 17:55:39.451,7521,250.7,40.10465,-88.22184,235.7332,0.29,98.78906,12,10,1416095739,-0.190567,0.6641388,0.5543823,-26.97851,41.33623,-9.464325,168.8016,171.8839,15,-1.175918,-0.2531979,-0.3971087,-1.212188,-2.721954,-0.9091041,-1.055553,-0.2330006,-0.4117543,-0.0820356,0.03886626,0.1029981,172.17.160.76,10.64.29.0,2,unknown,2,2014-11-15 17:55:36.064,8,2014-11-15 17:52:35.410,3
2014-11-15 17:55:39.484,7522,250.7334,40.10465,-88.22184,235.7332,0.29,98.78906,12,10,1416095739,-0.2100067,0.6386414,0.5538177,-28.0083,41.06088,-8.926483,169.3072,172.3895,15,-1.326894,-0.4478899,-0.5801436,-1.215082,-2.72837,-0.8851979,-1.185541,-0.2437617,-0.4378613,0.06367686,-0.1099015,-0.02546387,172.17.160.76,10.64.29.0,2,unknown,2,2014-11-15 17:55:36.064,8,2014-11-15 17:52:35.410,3
2014-11-15 17:55:39.518,7523,250.7667,40.10465,-88.22184,235.7332,0.29,98.78906,12,10,1416095739,-0.3300018,0.7351685,0.6624451,-29.8619,40.57907,-6.708099,169.5278,172.6101,15,-1.276953,-0.2739759,-0.4817584,-1.211112,-2.743505,-0.8292437,-1.270526,-0.4520693,-0.590432,-0.1183825,-0.02135632,-0.00501798,172.17.160.76,10.64.29.0,2,unknown,2,2014-11-15 17:55:36.064,8,2014-11-15 17:52:35.410,3
2014-11-15 17:55:39.551,7524,250.8,40.10465,-88.22184,235.7332,0.29,98.78906,12,10,1416095739,-0.1750336,0.6472473,0.6706848,-30.82303,39.89075,-4.960236,171.0382,174.1205,15,-1.306645,-0.3318448,-0.5488253,-1.213911,-2.749655,-0.7912995,-1.187649,-0.08306911,-0.405163,0.03760596,-0.03141198,0.1040884,172.17.160.76,10.64.29.0,2,unknown,2,2014-11-15 17:55:36.064,8,2014-11-15 17:52:35.410,3
2014-11-15 17:55:39.584,7525,250.8333,40.10465,-88.22184,235.7332,0.29,98.78906,12,10,1416095739,-0.3765717,0.5988007,0.6375122,-32.02443,39.994,-3.044312,173.3259,176.4082,15,-1.358849,-0.5480141,-0.6145186,-1.209566,-2.759083,-0.7492899,-1.270173,-0.6158386,-0.7494568,0.05522018,-0.02773766,-0.04426465,172.17.160.76,10.64.29.0,2,unknown,2,2014-11-15 17:55:36.064,8,2014-11-15 17:52:35.410,3
2014-11-15 17:55:39.618,7526,250.8667,40.10465,-88.22184,235.7332,0.29,98.78906,12,10,1416095739,-0.2928314,0.5962219,0.8336792,-33.01989,39.61543,-2.06955,173.9001,176.9824,15,-1.54642,-0.2510391,-0.5570553,-1.205766,-2.774098,-0.6930358,-1.303861,-0.2405486,-0.4416477,-0.1210797,-0.06844102,-0.02112043,172.17.160.76,10.64.29.0,2,unknown,2,2014-11-15 17:55:36.064,8,2014-11-15 17:52:35.410,3
2014-11-15 17:55:39.651,7527,250.9,40.10465,-88.22184,235.7332,0.29,98.78906,12,10,1416095739,-0.3333435,0.6325226,0.66539,-33.67209,39.09918,-1.162018,284.4907,287.573,15,-1.584701,-0.3694321,-0.6191013,-1.206935,-2.778307,-0.6632544,-1.479418,-0.1838316,-0.5404711,-0.01282052,-0.01946268,0.09711531,172.17.160.76,10.64.29.0,2,unknown,2,2014-11-15 17:55:36.064,8,2014-11-15 17:52:35.410,3
2014-11-15 17:55:39.685,7528,250.9333,40.10465,-88.22184,235.7332,0.29,98.78906,12,10,1416095739,-0.3113708,0.4874725,0.9232635,-35.73166,37.30954,1.392578,301.1577,304.24,15,-1.574634,-0.09009314,-0.3512361,-1.208203,-2.792028,-0.5976802,-1.562957,-0.2105073,-0.4192899,-0.1024886,-0.05807242,-0.1224746,172.17.160.76,10.64.29.0,2,unknown,2,2014-11-15 17:55:36.064,8,2014-11-15 17:52:35.410,3
2014-11-15 17:55:39.718,7529,250.9667,40.10465,-88.22184,235.7332,0.29,98.78906,12,10,1416095739,-0.1616058,0.4885864,0.7324982,-36.21222,36.62121,2.266479,301.1581,304.2404,15,-1.627162,-0.06326179,-0.6014078,-1.214597,-2.794055,-0.5516275,-1.478515,0.1497919,-0.4017867,-0.02130491,-0.03660143,0.1225088,172.17.160.76,10.64.29.0,2,unknown,2,2014-11-15 17:55:36.064,8,2014-11-15 17:52:35.410,3
2014-11-15 17:55:39.751,7530,251,40.10465,-88.22184,235.7332,0.29,98.78906,12,10,1416095739,-0.296524,0.3887329,0.9132385,-37.82554,35.62314,3.980713,300.8271,303.9094,15,-1.709651,-0.2368083,-0.5117869,-1.21511,-2.794621,-0.4851769,-1.643482,-0.1212173,-0.560757,0.114467,-0.01671882,-0.1052837,172.17.160.76,10.64.29.0,2,unknown,2,2014-11-15 17:55:36.064,8,2014-11-15 17:52:35.410,3
2014-11-15 17:55:39.784,7531,251.0333,40.10465,-88.22184,235.7332,0.29,98.78906,12,10,1416095739,-0.2559357,0.3759003,0.7962494,-38.88965,34.90039,5.829437,301.1649,304.2472,15,-1.568965,-0.3592215,-0.532065,-1.217992,-2.804279,-0.4193395,-1.500838,-0.1846458,-0.5085511,0.04959372,-0.02431427,0.138616,172.17.160.76,10.64.29.0,2,unknown,2,2014-11-15 17:55:36.064,8,2014-11-15 17:52:35.410,3
2014-11-15 17:55:39.818,7532,251.0667,40.10465,-88.22184,235.7332,0.29,98.78906,12,10,1416095739,-0.3406067,0.2575989,0.8717499,-39.50752,34.55624,6.83783,301.2713,304.3536,15,-1.617261,-0.3924578,-0.4333413,-1.218415,-2.810313,-0.3873957,-1.540465,-0.324698,-0.4836648,0.04521494,-0.001878157,-0.07930288,172.17.160.76,10.64.29.0,2,unknown,2,2014-11-15 17:55:36.064,8,2014-11-15 17:52:35.410,3
2014-11-15 17:55:39.851,7533,251.1,40.10465,-88.22184,235.7332,0.29,98.78906,12,10,1416095739,-0.3361206,0.3412933,0.9184875,-40.46864,33.1796,9.123474,301.1771,304.2594,15,-1.578314,-0.4034785,-0.6246119,-1.221927,-2.825267,-0.3241836,-1.495659,-0.358868,-0.5031193,-0.01105034,-0.01891345,0.1356187,172.17.160.76,10.64.29.0,2,unknown,2,2014-11-15 17:55:36.064,8,2014-11-15 17:52:35.410,3
2014-11-15 17:55:39.885,7534,251.1333,40.10465,-88.22184,235.7332,0.29,98.78906,12,10,1416095739,-0.3379822,0.1185913,0.8851471,-41.15516,31.87178,10.13187,300.6642,303.7465,15,-1.52937,-0.1328592,-0.5246523,-1.220061,-2.830858,-0.2919206,-1.511316,-0.336274,-0.6080285,-0.04329848,0.05350124,0.006659213,172.17.160.76,10.64.29.0,2,unknown,2,2014-11-15 17:55:36.064,8,2014-11-15 17:52:35.410,3
2014-11-15 17:55:39.918,7535,251.1667,40.10465,-88.22184,235.7332,0.29,98.78906,12,10,1416095739,-0.2803497,0.1720734,0.9985046,-42.56251,30.39188,11.91336,300.2432,303.3255,15,-1.526944,-0.3507735,-0.6776009,-1.216859,-2.834379,-0.2156231,-1.409963,-0.08420914,-0.5699289,0.0009368191,-0.04885606,0.1083518,172.17.160.76,10.64.29.0,2,unknown,2,2014-11-15 17:55:36.064,8,2014-11-15 17:52:35.410,3
2014-11-15 17:55:39.951,7536,251.2,40.10465,-88.22184,235.7332,0.29,98.78906,12,10,1416095739,-0.3082428,0.07290649,0.982666,-43.83257,28.36132,13.35876,299.5544,302.6367,15,-1.341559,-0.08869924,-0.5750127,-1.211322,-2.841007,-0.1684553,-1.3961,-0.2907606,-0.6241428,-0.01641518,-0.03902809,-0.03598794,172.17.160.76,10.64.29.0,6,unknown,2,2014-11-15 17:55:36.064,8,2014-11-15 17:52:35.410,3
2014-11-15 17:55:39.984,7537,251.2334,40.10465,-88.22184,235.7332,0.29,98.78906,12,10,1416095739,-0.424942,0.06448364,0.9646606,-44.41612,27.56976,13.93021,299.3406,302.4229,15,-1.451165,-0.2978011,-0.6935279,-1.206267,-2.84261,-0.1263006,-1.306423,-0.03562156,-0.6019055,0.01969503,-0.06721874,0.04855727,172.17.160.76,10.64.29.0,6,unknown,2,2014-11-15 17:55:36.064,8,2014-11-15 17:52:35.410,3
2014-11-15 17:55:40.018,7538,251.2667,40.10465,-88.22184,235.7332,0.29,98.78906,12,10,1416095739,-0.5224915,0.04760742,0.9915009,-45.13697,25.19504,15.50998,298.5177,301.6,15,-1.324469,0.1768302,-0.1650079,-1.199968,-2.856241,-0.05055844,-1.290522,-0.0008045953,-0.210095,-0.2439808,-0.002212321,0.0780251,172.17.160.76,10.64.29.0,6,unknown,2,2014-11-15 17:55:36.064,8,2014-11-15 17:52:35.410,3
2014-11-15 17:55:40.050,7539,251.3,40.10465,-88.22184,235.7332,0.29,98.78906,12,10,1416095739,-0.3694305,0.0333252,1.04158,-45.68618,24.23138,16.24951,298.2055,301.2878,15,-1.315602,0.2526301,-0.2580523,-1.199968,-2.856241,-0.05055844,-1.290522,-0.0008045953,-0.210095,-0.2439808,-0.002212321,0.0780251,172.17.160.76,10.64.29.0,6,unknown,2,2014-11-15 17:55:36.064,8,2014-11-15 17:52:35.410,3
2014-11-15 17:55:40.084,7540,251.3333,40.10465,-88.22184,235.7332,0.29,98.78906,12,10,1416095739,-0.2735291,-0.05122375,1.074921,-46.88761,21.58135,17.49313,297.7849,300.8672,15,-1.355842,-0.0184328,-0.4164284,-1.20133,-2.84441,0.0156817,-1.333179,0.113747,-0.5234735,-0.04265796,-0.01849863,0.04650043,172.17.160.76,10.64.29.0,6,unknown,2,2014-11-15 17:55:36.064,8,2014-11-15 17:52:35.410,3
2014-11-15 17:55:40.118,7541,251.3667,40.10465,-88.22182,235.7332,0.67,94.57031,12,10,1416095740,-0.2406158,-0.05657959,1.124039,-47.05924,20.65213,17.86292,297.72,300.8023,15,-1.120661,0.3055993,-0.5493494,-1.201479,-2.836047,0.06615511,-1.089125,0.3778286,-0.4327709,0.05937143,0.05412872,0.1770194,172.17.160.76,10.64.29.0,6,unknown,2,2014-11-15 17:55:36.064,8,2014-11-15 17:52:35.410,3
2014-11-15 17:55:40.151,7542,251.4,40.10465,-88.22182,235.7332,0.67,94.57031,12,10,1416095740,-0.3511353,-0.102417,0.8610992,-47.81441,19.06898,19.00574,297.7029,300.7852,15,-1.209929,-0.07884235,-0.3865099,-1.196208,-2.828782,0.1023443,-1.137134,0.09582344,-0.4924577,0.01161363,-0.07753699,0.04689912,172.17.160.76,10.64.29.0,6,unknown,2,2014-11-15 17:55:36.064,8,2014-11-15 17:52:35.410,3
2014-11-15 17:55:40.185,7543,251.4333,40.10465,-88.22182,235.7332,0.67,94.57031,12,10,1416095740,-0.3800659,-0.09461975,1.08551,-48.60392,18.00208,20.11499,297.89,300.9723,15,-0.7930891,0.08700281,-0.3489841,-1.197383,-2.829133,0.1355226,-0.9152724,-0.007320653,-0.2061702,-0.08265603,0.107093,0.01281804,172.17.160.76,10.64.29.0,6,unknown,2,2014-11-15 17:55:36.064,8,2014-11-15 17:52:35.410,3
2014-11-15 17:55:40.218,7544,251.4667,40.10465,-88.22182,235.7332,0.67,94.57031,12,10,1416095740,-0.3343506,-0.187851,1.032349,-49.05015,17.27934,20.41751,297.8199,300.9022,15,-0.9124139,0.03258218,-0.3870372,-1.195788,-2.825948,0.160084,-0.7845668,0.1325897,-0.3853134,-0.03046925,-0.01700573,0.1113779,172.17.160.76,10.64.29.0,6,unknown,2,2014-11-15 17:55:36.064,8,2014-11-15 17:52:35.410,3
2014-11-15 17:55:40.250,7545,251.5,40.10465,-88.22182,235.7332,0.67,94.57031,12,10,1416095740,-0.3630219,-0.1766205,1.075363,-49.94262,16.04035,20.28308,297.3764,300.4587,15,-0.7481562,0.1483317,-0.3859813,-1.194889,-2.82285,0.1969619,-0.8191519,0.08161733,-0.2421524,-0.006590238,-0.04375001,0.04436192,172.17.160.76,10.64.29.0,6,unknown,2,2014-11-15 17:55:36.064,8,2014-11-15 17:52:35.410,3
2014-11-15 17:55:40.285,7546,251.5333,40.10465,-88.22182,235.7332,0.67,94.57031,12,10,1416095740,-0.3051758,-0.1918182,0.9273376,-50.14856,15.97153,20.48477,297.6802,300.7625,15,-0.7607197,0.2148345,-0.445027,-1.19339,-2.819807,0.2126137,-0.681145,0.2155401,-0.3693418,-0.0538823,0.03439495,0.1480524,172.17.160.76,10.64.29.0,6,unknown,2,2014-11-15 17:55:36.064,8,2014-11-15 17:52:35.410,3
2014-11-15 17:55:40.318,7547,251.5667,40.10465,-88.22182,235.7332,0.67,94.57031,12,10,1416095740,-0.4360809,-0.2026215,1.006531,-51.5216,15.0767,20.41757,297.4184,300.5007,10,-0.6436674,-0.02794508,-0.08265547,-1.188931,-2.809934,0.2512707,-0.6575178,0.06871238,-0.111202,0.038684,-0.0579446,-0.07110077,172.17.160.76,10.64.29.0,6,unknown,2,2014-11-15 17:55:36.064,8,2014-11-15 17:52:35.410,3
2014-11-15 17:55:40.351,7548,251.6,40.10465,-88.22182,235.7332,0.67,94.57031,12,10,1416095740,-0.4247131,-0.2822723,1.007401,-52.37976,14.21629,20.72006,297.364,300.4463,10,-0.4555633,0.3252801,-0.1515576,-1.192333,-2.802578,0.2708129,-0.4121288,0.2937969,-0.1194276,-0.2108585,0.0464607,0.1186327,172.17.160.76,10.64.29.0,6,unknown,2,2014-11-15 17:55:36.064,8,2014-11-15 17:52:35.410,3
2014-11-15 17:55:40.387,7549,251.6333,40.10465,-88.22182,235.7332,0.67,94.57031,12,10,1416095740,-0.3836517,-0.1916046,1.061264,-53.20358,12.90847,20.4512,296.8073,299.8896,10,-0.2563836,0.3532955,-0.08740548,-1.192514,-2.790058,0.2833456,-0.3907017,0.4351118,-0.1187638,-0.01909227,-0.01344517,0.03232169,172.17.160.76,10.64.29.0,6,unknown,2,2014-11-15 17:55:36.064,8,2014-11-15 17:52:35.410,3
2014-11-15 17:55:40.418,7550,251.6667,40.10465,-88.22182,235.7332,0.67,94.57031,12,10,1416095740,-0.3844299,-0.1659546,1.175919,-53.20358,12.77081,19.98062,296.8541,299.9364,10,0.02718368,0.3329404,-0.09175895,-1.192865,-2.781599,0.2891873,-0.1893742,0.4205019,-0.07076652,-0.04601058,0.09356877,0.1642275,172.17.160.76,10.64.29.0,6,unknown,2,2014-11-15 17:55:36.064,8,2014-11-15 17:52:35.410,3
2014-11-15 17:55:40.451,7551,251.7,40.10465,-88.22182,235.7332,0.67,94.57031,12,10,1416095740,-0.2713776,-0.3045197,1.037613,-53.51252,12.73639,19.6781,296.9684,300.0507,10,0.04755074,0.3113587,-0.1344081,-1.191689,-2.7737,0.2896322,0.09419276,0.4001465,-0.07512005,-0.03975973,0.1196452,0.2816953,172.17.160.76,10.64.29.0,6,unknown,2,2014-11-15 17:55:36.064,8,2014-11-15 17:52:35.410,3
2014-11-15 17:55:40.484,7552,251.7334,40.10465,-88.22182,235.7332,0.67,94.57031,12,10,1416095740,-0.4464874,-0.02462769,1.173111,-53.82144,12.63315,17.82944,296.4926,299.5749,10,0.4350338,0.2465698,0.03469833,-1.18396,-2.760331,0.2877463,0.1388325,0.2769656,-0.06213677,-0.04796141,0.1554349,0.1011158,172.17.160.76,10.64.29.0,6,unknown,2,2014-11-15 17:55:36.064,8,2014-11-15 17:52:35.410,3
2014-11-15 17:55:40.518,7553,251.7667,40.10465,-88.22182,235.7332,0.67,94.57031,12,10,1416095740,-0.06506348,-0.269516,0.7896576,-53.78711,12.94289,17.72858,296.6226,299.7049,10,0.5690882,-0.1036119,-0.3189982,-1.175301,-2.753752,0.2696934,0.6816196,0.03994961,-0.1779346,0.08018746,0.1428092,0.1485825,172.17.160.76,10.64.29.0,6,unknown,2,2014-11-15 17:55:36.064,8,2014-11-15 17:52:35.410,3
2014-11-15 17:55:40.551,7554,251.8,40.10465,-88.22182,235.7332,0.67,94.57031,12,10,1416095740,-0.4711151,-0.07832336,0.9689026,-53.40953,13.11497,17.02271,295.4682,298.5505,10,1.114591,-0.2505241,0.1017168,-1.160239,-2.759628,0.2529613,0.8327062,-0.1041768,-0.1176935,0.16914,0.05030569,-0.09136572,172.17.160.76,10.64.29.0,6,unknown,2,2014-11-15 17:55:36.064,8,2014-11-15 17:52:35.410,3
2014-11-15 17:55:40.585,7555,251.8333,40.10465,-88.22182,235.7332,0.67,94.57031,12,10,1416095740,-0.5358124,-0.1908417,1.062698,-53.06627,13.52795,16.88821,295.0573,298.1396,10,1.229163,-0.1262168,-0.03392734,-1.14947,-2.76702,0.2206089,1.330787,-0.1992136,0.1336351,-0.1906456,0.1275153,0.21741,172.17.160.76,10.64.29.0,6,unknown,2,2014-11-15 17:55:36.064,8,2014-11-15 17:52:35.410,3
2014-11-15 17:55:40.618,7556,251.8667,40.10465,-88.22182,235.7332,0.67,94.57031,12,10,1416095740,-0.4473877,-0.1971436,0.90065,-52.99762,13.52795,16.68655,294.2838,297.3661,10,1.139249,0.2569317,0.1849693,-1.128196,-2.770513,0.16342,1.118987,0.2247977,0.1271075,-0.06651039,-0.06293815,-0.02280649,172.17.160.76,10.64.29.0,6,unknown,2,2014-11-15 17:55:36.064,8,2014-11-15 17:52:35.410,3
2014-11-15 17:55:40.651,7557,251.9,40.10465,-88.22182,235.7332,0.67,94.57031,12,10,1416095740,-0.3941193,-0.0994873,1.102585,-52.62002,14.59486,15.84622,293.4363,296.5186,10,1.372906,0.3255405,0.1388119,-1.122682,-2.764776,0.1389271,1.32784,0.3622639,0.1928612,-0.1076136,-0.01824238,0.003968625,172.17.160.76,10.64.29.0,6,unknown,2,2014-11-15 17:55:36.064,8,2014-11-15 17:52:35.410,3
2014-11-15 17:55:40.685,7558,251.9333,40.10465,-88.22182,235.7332,0.67,94.57031,12,10,1416095740,-0.3519135,-0.05648804,1.020142,-52.51704,14.9046,15.00589,292.961,296.0433,10,1.343042,0.175481,0.1052276,-1.109468,-2.755258,0.09721707,1.444459,0.3175123,0.04251975,-0.01910269,-0.002423303,0.1806623,172.17.160.76,10.64.29.0,6,unknown,2,2014-11-15 17:55:36.064,8,2014-11-15 17:52:35.410,3
2014-11-15 17:55:40.718,7559,251.9667,40.10465,-88.22182,235.7332,0.67,94.57031,12,10,1416095740,-0.4342957,-0.009750366,0.9742584,-52.24243,15.73059,13.0563,291.9177,295,10,1.494842,0.09717982,0.2995596,-1.096368,-2.748843,0.05659758,1.440655,0.2029842,0.2138909,-0.01274978,0.03758544,0.01615665,172.17.160.76,10.64.29.0,6,unknown,2,2014-11-15 17:55:36.064,8,2014-11-15 17:52:35.410,3
2014-11-15 17:55:40.750,7560,252,40.10465,-88.22182,235.7332,0.67,94.57031,12,10,1416095740,-0.5072937,-0.05731201,0.9441071,-51.38427,16.79749,11.74542,291.2484,294.3307,10,1.650549,0.2012769,0.3048321,-1.083361,-2.742936,-0.005966384,1.647122,0.1260375,0.3093072,-0.07935578,-0.02413957,0.01042459,172.17.160.76,10.64.29.0,6,unknown,2,2014-11-15 17:55:36.064,8,2014-11-15 17:52:35.410,3
2014-11-15 17:55:40.785,7561,252.0333,40.10465,-88.22182,235.7332,0.67,94.57031,12,10,1416095740,-0.432312,-0.02050781,0.9403229,-50.38881,17.72674,10.36731,289.6332,292.7155,10,1.515041,0.3677176,0.3868886,-1.068792,-2.731656,-0.073498,1.667407,0.3495166,0.3560517,-0.06511035,-0.1511296,0.05414098,172.17.160.76,10.64.29.0,6,unknown,2,2014-11-15 17:55:36.064,8,2014-11-15 17:52:35.410,3
2014-11-15 17:55:40.817,7562,252.0667,40.10465,-88.22182,235.7332,0.67,94.57031,12,10,1416095740,-0.4772491,0.02207947,0.9592133,-49.90825,18.62156,9.627808,290.2263,293.3086,10,1.408094,0.3153918,0.4867928,-1.060313,-2.718542,-0.1220068,1.557421,0.4288028,0.4364921,-0.04851699,-0.1183931,0.005734471,172.17.160.76,10.64.29.0,6,unknown,2,2014-11-15 17:55:36.064,8,2014-11-15 17:52:35.410,3
2014-11-15 17:55:40.851,7563,252.1,40.10465,-88.22182,235.7332,0.67,94.57031,12,10,1416095740,-0.4290924,0.05780029,0.9407654,-49.73662,19.48196,8.720245,290.1812,293.2635,10,1.363271,0.3144714,0.5028781,-1.056456,-2.710024,-0.1534839,1.475098,0.3825924,0.5034304,-0.06386998,-0.1308025,0.06158039,172.17.160.76,10.64.29.0,6,unknown,2,2014-11-15 17:55:36.064,8,2014-11-15 17:52:35.410,3
2014-11-15 17:55:40.885,7564,252.1333,40.10465,-88.22182,235.7332,0.67,94.57031,12,10,1416095740,-0.3862305,0.1401215,0.8830109,-48.43224,21.95993,6.232849,290.2527,293.3351,10,1.480557,0.3015897,0.4928177,-1.050774,-2.69219,-0.2153775,1.516615,0.4359489,0.5364617,0.01012919,-0.1223466,0.06569032,172.17.160.76,10.64.29.0,6,unknown,2,2014-11-15 17:55:36.064,8,2014-11-15 17:52:35.410,3
2014-11-15 17:55:40.918,7565,252.1667,40.10465,-88.22182,235.7332,0.67,94.57031,12,10,1416095740,-0.403183,0.2168274,0.8711548,-48.08898,22.64825,5.627808,290.1473,293.2296,10,1.344994,0.1008816,0.4996988,-1.041972,-2.677662,-0.2773669,1.420675,0.2358358,0.4837544,0.06099475,-0.108602,0.04532099,172.17.160.76,10.64.29.0,6,unknown,2,2014-11-15 17:55:36.064,8,2014-11-15 17:52:35.410,3
2014-11-15 17:55:40.951,7566,252.2,40.10465,-88.22182,235.7332,0.67,94.57031,12,10,1416095740,-0.7258301,0.2489319,0.8306732,-46.78458,24.23138,4.417725,289.038,292.1203,10,1.371245,0.03267006,0.6149428,-1.036399,-2.670859,-0.3222294,1.429945,0.1205983,0.5616624,-0.03229681,-0.07718007,0.02504152,172.17.160.76,10.64.29.0,6,unknown,2,2014-11-15 17:55:36.064,8,2014-11-15 17:52:35.410,3
2014-11-15 17:55:40.985,7567,252.2334,40.10465,-88.22182,235.7332,0.67,94.57031,12,10,1416095740,-0.6742706,0.2921753,0.8470459,-46.0294,26.5717,2.602631,289.497,292.5793,15,1.4231,0.6574535,0.9003929,-1.036897,-2.662693,-0.3866488,1.457998,0.4471135,0.8870286,-0.33829,-0.1126519,0.02121551,172.17.160.76,10.64.29.0,6,unknown,2,2014-11-15 17:55:36.064,8,2014-11-15 17:52:35.410,3
2014-11-15 17:55:41.017,7568,252.2667,40.10465,-88.22182,235.7332,0.67,94.57031,12,10,1416095740,-0.33255,0.3205719,0.8434448,-45.41153,27.67301,1.392578,289.9291,293.0114,15,1.50022,1.017405,0.8712167,-1.039334,-2.647897,-0.4217621,1.526519,0.9818392,0.9256783,-0.1062022,-0.1217864,0.04293856,172.17.160.76,10.64.29.0,6,unknown,2,2014-11-15 17:55:36.064,8,2014-11-15 17:52:35.410,3
2014-11-15 17:55:41.051,7569,252.3,40.10465,-88.22182,235.7332,0.67,94.57031,12,10,1416095740,-0.3282318,0.5620422,0.8119354,-44.24446,29.53149,-1.229218,290.2542,293.3365,15,1.528265,0.5204695,0.6360303,-1.03863,-2.607482,-0.4926566,1.530077,0.7925023,0.7580151,0.1480753,-0.05741037,0.104978,172.17.160.76,10.64.29.0,6,unknown,2,2014-11-15 17:55:36.064,8,2014-11-15 17:52:35.410,3
2014-11-15 17:55:41.084,7570,252.3333,40.10465,-88.22182,235.7332,0.67,94.57031,12,10,1416095740,-0.2290192,0.5514679,0.8212738,-43.7639,29.94448,-2.170349,290.0386,293.1209,15,1.524337,0.4216897,0.4996551,-1.029977,-2.584627,-0.5433508,1.570902,0.5543298,0.5974344,0.1742235,0.03742098,0.07729872,172.17.160.76,10.64.29.0,6,unknown,2,2014-11-15 17:55:36.064,8,2014-11-15 17:52:35.410,3
2014-11-15 17:55:41.118,7571,252.3667,40.10465,-88.22182,235.5142,0.49,56.60156,8,10,1416095741,-0.5895081,0.4880066,0.5650024,-42.08193,31.21788,-4.355194,289.7835,292.8658,15,1.522724,0.02702576,0.5803784,-1.006142,-2.557142,-0.6085234,1.710723,0.1343881,0.4344155,0.02466057,-0.01402411,0.04820985,172.17.160.76,10.64.29.0,6,unknown,2,2014-11-15 17:55:36.064,8,2014-11-15 17:52:35.410,3
2014-11-15 17:55:41.151,7572,252.4,40.10465,-88.22182,235.5142,0.49,56.60156,8,10,1416095741,-0.6315613,0.5243073,0.5843353,-40.67456,32.07828,-6.203888,289.1811,292.2634,15,1.398803,0.4759287,0.780642,-0.9905742,-2.544837,-0.6581995,1.501079,0.2096891,0.6850452,-0.1725917,-0.13507,-0.1333073,172.17.160.76,10.64.29.0,6,unknown,2,2014-11-15 17:55:36.064,8,2014-11-15 17:52:35.410,3
2014-11-15 17:55:41.184,7573,252.4333,40.10465,-88.22182,235.5142,0.49,56.60156,8,10,1416095741,-0.5246887,0.5887146,0.6860657,-39.74776,32.66335,-7.514801,289.1318,292.2141,15,1.476594,0.732536,0.8560057,-0.9830364,-2.525247,-0.707902,1.498861,0.6921667,0.8362016,-0.1834538,-0.09213582,0.04968148,172.17.160.76,10.64.29.0,6,unknown,2,2014-11-15 17:55:36.064,8,2014-11-15 17:52:35.410,3
2014-11-15 17:55:41.218,7574,252.4667,40.10465,-88.22182,235.5142,0.49,56.60156,8,10,1416095741,-0.4568481,0.5866699,0.6026306,-38.10011,33.627,-9.665924,201.8266,204.9089,15,1.352024,0.7098443,0.7979712,-0.9718032,-2.48678,-0.7772256,1.458364,0.7326053,0.8418735,-0.05288966,-0.1205701,0.02828904,172.17.160.76,10.64.29.0,6,unknown,2,2014-11-15 17:55:36.064,8,2014-11-15 17:52:35.410,3
2014-11-15 17:55:41.251,7575,252.5,40.10465,-88.22182,235.5142,0.49,56.60156,8,10,1416095741,-0.5869751,0.6803284,0.6057739,-37.03601,34.14325,-11.24576,189.112,192.1943,15,1.61003,0.8459361,0.8253203,-0.9648287,-2.465849,-0.8098487,1.462824,0.8524132,0.8074588,-0.02551376,-0.137513,0.06456947,172.17.160.76,10.64.29.0,6,unknown,2,2014-11-15 17:55:36.064,8,2014-11-15 17:52:35.410,3
2014-11-15 17:55:41.284,7576,252.5333,40.10465,-88.22182,235.5142,0.49,56.60156,8,10,1416095741,-0.4581451,0.9187622,0.5317383,-34.7705,35.24456,-14.47263,185.7951,188.8774,15,1.583118,0.8742801,0.9189807,-0.9401508,-2.411763,-0.8815311,1.634221,0.8880559,0.8951075,-0.1352977,-0.08932523,0.04739646,172.17.160.76,10.64.29.0,6,unknown,2,2014-11-15 17:55:36.064,8,2014-11-15 17:52:35.410,3
2014-11-15 17:55:41.318,7577,252.5667,40.10465,-88.22182,235.5142,0.49,56.60156,8,10,1416095741,-0.3648071,0.957016,0.4333496,-32.53931,35.82964,-17.5314,184.1887,187.271,15,1.903351,0.8714913,1.133248,-0.9080813,-2.347121,-0.959146,1.865054,0.9786203,1.083664,0.01027225,0.1177609,0.06754533,172.17.160.76,10.64.29.0,6,unknown,2,2014-11-15 17:55:36.064,8,2014-11-15 17:52:35.410,3
2014-11-15 17:55:41.351,7578,252.6,40.10465,-88.22182,235.5142,0.49,56.60156,8,10,1416095741,-0.2073212,1.124542,0.2072601,-29.82757,36.20823,-19.71622,182.0262,185.1085,15,1.56407,0.3762408,1.099004,-0.8731309,-2.290633,-1.024908,1.874167,0.8116109,1.200575,0.09090749,0.1857694,-0.01717038,172.17.160.76,10.64.29.0,6,unknown,2,2014-11-15 17:55:36.064,8,2014-11-15 17:52:35.410,3
2014-11-15 17:55:41.384,7579,252.6333,40.10465,-88.22182,235.5142,0.49,56.60156,8,10,1416095741,-0.3994446,0.8225403,0.2850952,-28.4202,36.10497,-20.62375,180.8216,183.9039,15,1.668173,0.1386452,1.161052,-0.8392401,-2.246284,-1.083366,1.650226,0.33495,1.102308,0.08817846,0.163931,-0.08086329,172.17.160.76,10.64.29.0,6,unknown,2,2014-11-15 17:55:36.064,8,2014-11-15 17:52:35.410,3
2014-11-15 17:55:41.418,7580,252.6667,40.10465,-88.22182,235.5142,0.49,56.60156,8,10,1416095741,-0.1439362,0.6329803,-0.08903503,-25.70845,36.75888,-22.74142,178.1822,181.2645,15,1.159499,-0.3621212,1.089201,-0.790216,-2.200967,-1.164375,1.458086,-0.23868,1.392976,0.01794049,-0.2585379,-0.009538587,172.17.160.76,10.64.29.0,6,unknown,2,2014-11-15 17:55:36.064,8,2014-11-15 17:52:35.410,3
2014-11-15 17:55:41.451,7581,252.7,40.10465,-88.22182,235.5142,0.49,56.60156,8,10,1416095741,-0.002243042,0.5410004,-0.2056274,-23.64888,37.17188,-24.69089,171.1309,174.2132,15,0.3261478,-0.01755662,0.370205,-0.7626526,-2.183477,-1.213755,0.9895867,-0.1541724,0.8739873,0.1932962,-0.3484187,-0.3818185,172.17.160.76,10.64.29.0,6,unknown,2,2014-11-15 17:55:36.064,8,2014-11-15 17:52:35.410,3
2014-11-15 17:55:41.484,7582,252.7334,40.10465,-88.22182,235.5142,0.49,56.60156,8,10,1416095741,-0.2399445,0.7548828,0.04406738,-22.72209,37.06863,-25.1951,171.1691,174.2514,15,0.05171593,0.4223225,-0.07333493,-0.7495098,-2.170275,-1.233258,0.1946021,0.1158787,0.1395947,0.2661876,-0.3338771,-0.2288705,172.17.160.76,10.64.29.0,6,unknown,2,2014-11-15 17:55:36.064,8,2014-11-15 17:52:35.410,3
2014-11-15 17:55:41.518,7583,252.7667,40.10465,-88.22182,235.5142,0.49,56.60156,8,10,1416095741,-0.1222382,0.5852509,0.03399658,-21.14308,36.99979,-25.73288,170.2623,173.3446,15,-0.1327631,0.1260522,0.2219492,-0.7523635,-2.15376,-1.237712,-0.1415792,0.2532412,0.298676,0.05535161,-0.3786931,-0.2187793,172.17.160.76,10.64.29.0,6,unknown,2,2014-11-15 17:55:36.064,8,2014-11-15 17:52:35.410,3
2014-11-15 17:55:41.550,7584,252.8,40.10465,-88.22182,235.5142,0.49,56.60156,8,10,1416095741,-0.2284393,0.8220367,0.07572937,-20.49089,36.82769,-25.36313,171.1598,174.2421,15,-0.1481924,0.02564837,0.01024332,-0.7619193,-2.159196,-1.240422,-0.01101244,0.1401247,0.1012172,0.1260137,-0.3232099,-0.0225794,172.17.160.76,10.64.29.0,6,unknown,2,2014-11-15 17:55:36.064,8,2014-11-15 17:52:35.410,3
2014-11-15 17:55:41.584,7585,252.8333,40.10465,-88.22182,235.5142,0.49,56.60156,8,10,1416095741,-0.2497711,0.8709564,0.2180328,-20.31926,37.13744,-24.99344,171.0921,174.1744,15,-0.3225107,0.05638338,-0.1524103,-0.7841897,-2.179162,-1.234785,-0.3366555,0.02494301,-0.1168353,0.1132326,-0.05204855,-0.08016988,172.17.160.76,10.64.29.0,2,unknown,2,2014-11-15 17:55:36.064,8,2014-11-15 17:52:35.410,3
2014-11-15 17:55:41.617,7586,252.8667,40.10465,-88.22182,235.5142,0.49,56.60156,8,10,1416095741,-0.1988373,0.9796906,0.1318207,-20.55955,37.10302,-24.28757,170.9051,173.9874,15,-0.3314706,0.1298589,0.009355418,-0.7970895,-2.18619,-1.229311,-0.18985,0.2332428,0.03868808,-0.04608329,-0.08041122,-0.00815852,172.17.160.76,10.64.29.0,2,unknown,2,2014-11-15 17:55:36.064,8,2014-11-15 17:52:35.410,3
2014-11-15 17:55:41.651,7587,252.9,40.10465,-88.22182,235.5142,0.49,56.60156,8,10,1416095741,-0.2389832,1.093307,0.1867218,-20.59388,37.0686,-23.98502,171.1935,174.2758,15,-0.4143248,0.04611477,-0.1107228,-0.8036448,-2.190257,-1.228225,-0.2644634,0.1970556,0.0260391,0.009243505,-0.02714495,-0.02170332,172.17.160.76,10.64.29.0,2,unknown,2,2014-11-15 17:55:36.064,8,2014-11-15 17:52:35.410,3
2014-11-15 17:55:41.684,7588,252.9333,40.10465,-88.22182,235.5142,0.49,56.60156,8,10,1416095741,-0.1890106,0.9163666,0.1986847,-20.28495,36.89653,-23.88419,173.0363,176.1186,15,-0.2443482,-0.07917365,0.05357215,-0.8300946,-2.214591,-1.212436,-0.2356492,-0.02128009,-0.03996911,-0.1061437,0.06717352,0.07308949,172.17.160.76,10.64.29.0,2,unknown,2,2014-11-15 17:55:36.064,8,2014-11-15 17:52:35.410,3
2014-11-15 17:55:41.718,7589,252.9667,40.10465,-88.22182,235.5142,0.49,56.60156,8,10,1416095741,-0.2967987,0.9706879,0.1221008,-20.14764,36.75887,-23.6152,172.8347,175.917,15,-0.3087565,-0.2701937,-0.2008868,-0.8447586,-2.22904,-1.210022,-0.206933,-0.0977782,-0.03729513,0.09023564,-0.01925704,-0.01725505,172.17.160.76,10.64.29.0,2,unknown,2,2014-11-15 17:55:36.064,8,2014-11-15 17:52:35.410,3
2014-11-15 17:55:41.750,7590,253,40.10465,-88.22182,235.5142,0.49,56.60156,8,10,1416095741,-0.2361755,0.8047943,0.1387939,-20.42225,37.0342,-23.48074,173.8761,176.9584,15,-0.5046213,-0.02809422,-0.2349688,-0.8520471,-2.244053,-1.19601,-0.3001998,-0.1406194,-0.2292998,-0.07383665,-0.004942073,-0.1219516,172.17.160.76,10.64.29.0,2,unknown,2,2014-11-15 17:55:36.064,8,2014-11-15 17:52:35.410,3
2014-11-15 17:55:41.785,7591,253.0333,40.10465,-88.22182,235.5142,0.49,56.60156,8,10,1416095741,-0.2441406,0.8073883,0.1866608,-20.69686,37.37837,-23.01016,173.6377,176.72,15,-0.7054945,-0.2051843,-0.4824745,-0.8666701,-2.257756,-1.182765,-0.5290395,0.01614457,-0.3093517,0.1402771,-0.1437192,-0.08263802,172.17.160.76,10.64.29.0,2,unknown,2,2014-11-15 17:55:36.064,8,2014-11-15 17:52:35.410,3
2014-11-15 17:55:41.818,7592,253.0667,40.10465,-88.22182,235.5142,0.49,56.60156,8,10,1416095741,-0.2968292,0.8011169,0.1596985,-21.76096,37.55045,-22.43887,173.7993,176.8816,15,-0.7759011,-0.26678,-0.4825352,-0.8718087,-2.262941,-1.176092,-0.5874143,-0.06112451,-0.4146267,0.1570837,-0.1400751,-0.09559545,172.17.160.76,10.64.29.0,2,unknown,2,2014-11-15 17:55:36.064,8,2014-11-15 17:52:35.410,3
2014-11-15 17:55:41.851,7593,253.1,40.10465,-88.22182,235.5142,0.49,56.60156,8,10,1416095741,-0.2138062,0.765274,0.1773071,-23.30564,37.58487,-21.39682,174.2686,177.3509,15,-1.243608,-0.5898566,-0.6608142,-0.9141061,-2.314323,-1.123764,-1.032819,-0.3595176,-0.5588919,0.1779293,-0.1722267,-0.1911724,172.17.160.76,10.64.29.0,2,unknown,2,2014-11-15 17:55:36.064,8,2014-11-15 17:52:35.410,3
2014-11-15 17:55:41.884,7594,253.1333,40.10465,-88.22182,235.5142,0.49,56.60156,8,10,1416095741,-0.408493,0.7818146,0.4085999,-24.50705,37.27513,-21.02713,175.4174,178.4998,15,-1.272735,-0.6464717,-0.5612239,-0.9417635,-2.356945,-1.083799,-1.282091,-0.6813696,-0.7018921,0.1168531,-0.118468,-0.153849,172.17.160.76,10.64.29.0,2,unknown,2,2014-11-15 17:55:36.064,8,2014-11-15 17:52:35.410,3
2014-11-15 17:55:41.918,7595,253.1667,40.10465,-88.22182,235.5142,0.49,56.60156,8,10,1416095741,-0.3348083,0.7835999,0.4241791,-26.08603,37.61929,-19.61539,175.2725,178.3548,15,-1.343298,-0.6438,-0.4930108,-0.9781131,-2.412147,-1.033285,-1.237971,-0.5594571,-0.4540901,-0.03708515,-0.08814183,0.0160934,172.17.160.76,10.64.29.0,2,unknown,2,2014-11-15 17:55:36.064,8,2014-11-15 17:52:35.410,3
2014-11-15 17:55:41.951,7596,253.2,40.10465,-88.22182,235.5142,0.49,56.60156,8,10,1416095741,-0.417984,0.7109528,0.3959656,-27.56205,37.79138,-18.10281,176.1954,179.2777,15,-1.66716,-0.6942275,-0.5780436,-1.011433,-2.464862,-0.9792899,-1.407102,-0.6199252,-0.5928295,-0.06023587,-0.09871737,-0.05798842,172.17.160.76,10.64.29.0,2,unknown,2,2014-11-15 17:55:36.064,8,2014-11-15 17:52:35.410,3
2014-11-15 17:55:41.985,7597,253.2334,40.10465,-88.22182,235.5142,0.49,56.60156,8,10,1416095741,-0.501236,0.7868042,0.4725647,-27.87098,38.16995,-16.85916,176.9468,180.0291,15,-1.695949,-0.7176223,-0.582305,-1.037357,-2.504578,-0.9319431,-1.605523,-0.6524955,-0.5561677,-0.09998762,-0.04254141,-0.01378528,172.17.160.76,10.64.29.0,2,unknown,2,2014-11-15 17:55:36.064,8,2014-11-15 17:52:35.410,3
2014-11-15 17:55:42.018,7598,253.2667,40.10465,-88.22182,235.5142,0.49,56.60156,8,10,1416095741,-0.4385376,0.8260345,0.6464844,-29.34701,38.06671,-14.3381,177.983,181.0653,15,-1.467466,-0.1139071,-0.543891,-1.06064,-2.538929,-0.8827258,-1.551979,-0.2922288,-0.5449178,-0.1084137,0.02627906,0.03389738,172.17.160.76,10.64.29.0,2,unknown,2,2014-11-15 17:55:36.064,8,2014-11-15 17:52:35.410,3
2014-11-15 17:55:42.051,7599,253.3,40.10465,-88.22182,235.5142,0.49,56.60156,8,10,1416095741,-0.4140015,0.7431793,0.64328,-30.1365,37.82581,-13.09445,178.5043,181.5866,15,-1.458824,-0.03115632,-0.5604713,-1.072492,-2.550267,-0.8528181,-1.400464,-0.04671592,-0.5272087,-0.07180348,0.07289723,0.1003248,172.17.160.76,10.64.29.0,2,unknown,2,2014-11-15 17:55:36.064,8,2014-11-15 17:52:35.410,3
2014-11-15 17:55:42.084,7600,253.3333,40.10465,-88.22182,235.5142,0.49,56.60156,8,10,1416095741,-0.3269348,0.7331848,0.8302765,-31.88713,37.1719,-11.0441,180.644,183.7263,15,-1.362132,0.1223616,-0.7691369,-1.094068,-2.563993,-0.7754799,-1.406163,0.1549137,-0.7033519,0.1047751,0.03120337,0.00695085,172.17.160.76,10.64.29.0,2,unknown,2,2014-11-15 17:55:36.064,8,2014-11-15 17:52:35.410,3
2014-11-15 17:55:42.118,7601,253.3667,40.10466,-88.22182,235.5181,0.43,29.53125,8,10,1416095742,-0.2714996,0.5640411,0.4443512,-33.36314,36.51798,-9.531464,183.92,187.0023,15,-1.515208,-0.6712455,-0.762128,-1.09658,-2.564897,-0.730804,-1.263419,-0.2366587,-0.7675144,0.07305709,0.01748329,0.1240536,172.17.160.76,10.64.29.0,2,unknown,2,2014-11-15 17:55:36.064,8,2014-11-15 17:52:35.410,3
2014-11-15 17:55:42.151,7602,253.4,40.10466,-88.22182,235.5181,0.43,29.53125,8,10,1416095742,-0.5444794,0.6564484,0.9525604,-35.52567,35.86407,-8.22049,188.02,191.1023,15,-1.447416,-0.7436483,-0.6364468,-1.104616,-2.593248,-0.6660412,-1.532646,-0.6694352,-0.6849283,0.07575889,-0.1181681,-0.1359628,172.17.160.76,10.64.29.0,2,unknown,2,2014-11-15 17:55:36.064,8,2014-11-15 17:52:35.410,3
2014-11-15 17:55:42.185,7603,253.4333,40.10466,-88.22182,235.5181,0.43,29.53125,8,10,1416095742,-0.4438324,0.5336456,0.526535,-36.38382,35.4855,-7.111298,189.4064,192.4887,15,-1.414139,-0.8309984,-0.3812142,-1.11206,-2.617652,-0.623055,-1.276476,-0.7177246,-0.4494315,-0.1501674,0.08335131,0.08596344,172.17.160.76,10.64.29.0,2,unknown,2,2014-11-15 17:55:36.064,8,2014-11-15 17:52:35.410,3
2014-11-15 17:55:42.218,7604,253.4667,40.10466,-88.22182,235.5181,0.43,29.53125,8,10,1416095742,-0.3325958,0.4174042,0.465683,-37.24197,35.10693,-6.002167,280.1539,283.2362,15,-1.51226,-0.6967021,-0.3323729,-1.11206,-2.617652,-0.623055,-1.276476,-0.7177246,-0.4494315,-0.1501674,0.08335131,0.08596344,172.17.160.76,10.64.29.0,2,unknown,2,2014-11-15 17:55:36.064,8,2014-11-15 17:52:35.410,3
2014-11-15 17:55:42.251,7605,253.5,40.10466,-88.22182,235.5181,0.43,29.53125,8,10,1416095742,-0.494812,0.4989166,0.8269806,-39.02693,33.59261,-2.371918,294.7231,297.8055,15,-1.420238,-0.02743642,-0.628531,-1.136774,-2.660738,-0.5343238,-1.346104,-0.2117083,-0.5632694,-0.2051755,0.04297168,0.258892,172.17.160.76,10.64.29.0,2,unknown,2,2014-11-15 17:55:36.064,8,2014-11-15 17:52:35.410,3
2014-11-15 17:55:42.285,7606,253.5333,40.10466,-88.22182,235.5181,0.43,29.53125,8,10,1416095742,-0.2967072,0.3759766,0.7165222,-39.61047,33.21404,-1.329895,294.9036,297.9859,15,-1.663325,0.1324347,-0.5790122,-1.139885,-2.662401,-0.4899842,-1.448199,0.08368167,-0.5698234,0.01896589,-0.04475436,-0.09071491,172.17.160.76,10.64.29.0,2,unknown,2,2014-11-15 17:55:36.064,8,2014-11-15 17:52:35.410,3
2014-11-15 17:55:42.318,7607,253.5667,40.10466,-88.22182,235.5181,0.43,29.53125,8,10,1416095742,-0.42659,0.4453583,0.8083191,-41.08648,32.21597,0.3843384,294.7388,297.8211,15,-1.345076,0.05741456,-0.785465,-1.147403,-2.658243,-0.4249354,-1.391177,0.2058441,-0.7116324,-0.03356973,0.08815008,0.06244414,172.17.160.76,10.64.29.0,2,unknown,2,2014-11-15 17:55:36.064,8,2014-11-15 17:52:35.410,3
2014-11-15 17:55:42.351,7608,253.6,40.10466,-88.22182,235.5181,0.43,29.53125,8,10,1416095742,-0.3904572,0.4012909,0.9594421,-42.56251,30.32308,1.829742,294.1453,297.2276,15,-1.505255,-0.02806492,-0.7173805,-1.145525,-2.653515,-0.3799172,-1.302755,0.08671626,-0.7221442,0.07501855,0.02850943,0.05367486,172.17.160.76,10.64.29.0,2,unknown,2,2014-11-15 17:55:36.064,8,2014-11-15 17:52:35.410,3
2014-11-15 17:55:42.384,7609,253.6333,40.10466,-88.22182,235.5181,0.43,29.53125,8,10,1416095742,-0.3895874,0.3879089,0.7815399,-43.24903,29.63476,2.569244,293.9268,297.0091,15,-1.554364,-0.5814559,-0.8347508,-1.146366,-2.654037,-0.3160361,-1.45614,-0.1509347,-0.8247237,0.02783168,0.1417132,0.09517965,172.17.160.76,10.64.29.0,2,unknown,2,2014-11-15 17:55:36.064,8,2014-11-15 17:52:35.410,3
2014-11-15 17:55:42.418,7610,253.6667,40.10466,-88.22182,235.5181,0.43,29.53125,8,10,1416095742,-0.4757385,0.161377,0.8370514,-44.24447,27.74187,3.880127,293.5396,296.6219,15,-1.332339,-0.629648,-0.5885107,-1.145113,-2.666787,-0.2657835,-1.414188,-0.6261708,-0.7169894,0.06013154,0.035293,-0.1736893,172.17.160.76,10.64.29.0,2,unknown,2,2014-11-15 17:55:36.064,8,2014-11-15 17:52:35.410,3
2014-11-15 17:55:42.452,7611,253.7,40.10466,-88.22182,235.5181,0.43,29.53125,8,10,1416095742,-0.6092682,0.09796143,0.8366089,-44.45044,27.32887,4.417908,293.875,296.9573,15,-1.250789,-0.5857628,-0.3996412,-1.14563,-2.672679,-0.2513971,-1.26533,-0.5624575,-0.5717883,0.05332769,-0.04078005,-0.08447757,172.17.160.76,10.64.29.0,2,unknown,2,2014-11-15 17:55:36.064,8,2014-11-15 17:52:35.410,3
2014-11-15 17:55:42.485,7612,253.7334,40.10466,-88.22182,235.5181,0.43,29.53125,8,10,1416095742,-0.6353149,0.0252533,0.9795074,-45.17128,25.57367,6.199402,294.2875,297.3698,15,-1.385695,-0.3500299,-0.1463234,-1.161453,-2.710777,-0.1735387,-1.356021,-0.5169774,-0.1816455,-0.2210003,-0.1460271,-0.02792779,172.17.160.76,10.64.29.0,2,unknown,2,2014-11-15 17:55:36.064,8,2014-11-15 17:52:35.410,3
2014-11-15 17:55:42.518,7613,253.7667,40.10466,-88.22182,235.5181,0.43,29.53125,8,10,1416095742,-0.483139,0.005950928,0.8578186,-46.23538,24.57559,7.779236,293.9063,296.9886,15,-1.408605,0.3171915,-0.1565233,-1.170288,-2.71586,-0.1488056,-1.272734,0.06604525,-0.07804652,-0.2486952,-0.1198452,0.1015105,172.17.160.76,10.64.29.0,2,unknown,2,2014-11-15 17:55:36.064,8,2014-11-15 17:52:35.410,3
2014-11-15 17:55:42.551,7614,253.8,40.10466,-88.22182,235.5181,0.43,29.53125,8,10,1416095742,-0.3158875,-0.01239014,0.9275055,-46.54431,23.43986,7.947266,294.4711,297.5534,15,-1.317811,0.3619438,-0.5578678,-1.18564,-2.70362,-0.09695046,-1.367426,0.4398247,-0.3984143,0.0516138,-0.113095,-0.06806296,172.17.160.76,10.64.29.0,6,unknown,2,2014-11-15 17:55:36.064,8,2014-11-15 17:52:35.410,3
2014-11-15 17:55:42.585,7615,253.8333,40.10466,-88.22182,235.5181,0.43,29.53125,8,10,1416095742,-0.4373474,0.04348755,0.9743958,-47.4711,22.64828,7.779236,294.3219,297.4042,15,-1.379433,0.232633,-0.6602203,-1.187928,-2.690583,-0.05562226,-1.236815,0.4458313,-0.5803852,0.07683214,-0.04453097,0.1169635,172.17.160.76,10.64.29.0,6,unknown,2,2014-11-15 17:55:36.064,8,2014-11-15 17:52:35.410,3
2014-11-15 17:55:42.618,7616,253.8667,40.10466,-88.22182,235.5181,0.43,29.53125,8,10,1416095742,-0.3929901,0.004119873,0.8702087,-48.22628,21.68462,7.577515,294.096,297.1783,15,-1.403951,0.03888428,-0.7099769,-1.18813,-2.68262,-0.02741308,-1.312426,0.2998211,-0.6434985,-0.004496618,0.03910341,0.1070482,172.17.160.76,10.64.29.0,6,unknown,2,2014-11-15 17:55:36.064,8,2014-11-15 17:52:35.410,3
2014-11-15 17:55:42.651,7617,253.9,40.10466,-88.22182,235.5181,0.43,29.53125,8,10,1416095742,-0.5372009,-0.0440979,0.9353943,-50.52611,19.03458,8.821228,293.5837,296.666,15,-1.306455,-0.2077601,-0.580017,-1.185049,-2.691604,0.04662225,-1.23402,-0.2557996,-0.6254885,0.07977653,-0.09105944,0.05386487,172.17.160.76,10.64.29.0,6,unknown,2,2014-11-15 17:55:36.064,8,2014-11-15 17:52:35.410,3
2014-11-15 17:55:42.684,7618,253.9333,40.10466,-88.22182,235.5181,0.43,29.53125,8,10,1416095742,-0.5851135,-0.03337097,0.9754639,-50.93803,18.07092,9.4935,293.4162,296.4985,15,-1.129854,-0.3187186,-0.4878522,-1.185624,-2.697491,0.08780125,-1.252319,-0.3181648,-0.5832891,-0.1092087,0.04359058,0.03587586,172.17.160.76,10.64.29.0,6,unknown,2,2014-11-15 17:55:36.064,8,2014-11-15 17:52:35.410,3
2014-11-15 17:55:42.718,7619,253.9667,40.10466,-88.22182,235.5181,0.43,29.53125,8,10,1416095742,-0.4446411,-0.2871246,0.9711304,-51.48722,16.21243,11.10687,293.3043,296.3866,15,-0.9936177,0.2023512,-0.2828754,-1.187918,-2.70322,0.1331536,-0.9160319,0.1888227,-0.2602498,-0.1724912,0.1097808,0.07383903,172.17.160.76,10.64.29.0,6,unknown,2,2014-11-15 17:55:36.064,8,2014-11-15 17:52:35.410,3
2014-11-15 17:55:42.752,7620,254,40.10466,-88.22182,235.5181,0.43,29.53125,8,10,1416095742,-0.47966,-0.1645203,1.027176,-52.31105,14.76696,11.77911,293.1416,296.2239,15,-0.9504223,0.3074076,-0.4395832,-1.190388,-2.689497,0.172953,-0.9483199,0.3274643,-0.4770027,-0.02936689,-0.1350064,0.0548659,172.17.160.76,10.64.29.0,6,unknown,2,2014-11-15 17:55:36.064,8,2014-11-15 17:52:35.410,3
2014-11-15 17:55:42.784,7621,254.0333,40.10466,-88.22182,235.5181,0.43,29.53125,8,10,1416095742,-0.4360199,-0.1777802,0.9554749,-52.61998,14.31953,11.87997,293.7536,296.8359,15,-0.6889944,0.1656151,-0.2035369,-1.191788,-2.679343,0.199083,-0.6698426,0.2825592,-0.2139731,-0.05639138,0.0570845,0.1073684,172.17.160.76,10.64.29.0,6,unknown,2,2014-11-15 17:55:36.064,8,2014-11-15 17:52:35.410,3
2014-11-15 17:55:42.818,7622,254.0667,40.10466,-88.22182,235.5181,0.43,29.53125,8,10,1416095742,-0.4086151,-0.2176056,0.9444885,-53.51246,13.35589,11.61105,293.3807,296.463,15,-0.7997843,-0.02509443,-0.27843,-1.195603,-2.673842,0.2201084,-0.753143,0.0487561,-0.2244458,0.1040795,-0.06410474,0.07421672,172.17.160.76,10.64.29.0,6,unknown,2,2014-11-15 17:55:36.064,8,2014-11-15 17:52:35.410,3
2014-11-15 17:55:42.851,7623,254.1,40.10466,-88.22182,235.5181,0.43,29.53125,8,10,1416095742,-0.4302063,-0.1213531,0.9382629,-53.99303,13.14939,11.81271,293.5562,296.6385,15,-0.6727118,-0.1662121,-0.3847357,-1.197136,-2.673053,0.2355008,-0.6889189,-0.01793238,-0.3280013,0.03050359,0.01572441,0.0768873,172.17.160.76,10.64.29.0,6,unknown,2,2014-11-15 17:55:36.064,8,2014-11-15 17:52:35.410,3
2014-11-15 17:55:42.884,7624,254.1333,40.10466,-88.22182,235.5181,0.43,29.53125,8,10,1416095742,-0.4900055,-0.3089447,0.9216461,-54.57657,12.77084,12.11523,293.9595,297.0418,15,-0.5811063,-0.1351948,-0.3520094,-1.192055,-2.678716,0.2621473,-0.3479136,-0.0433183,-0.2911987,-0.01701896,-0.06385819,0.102976,172.17.160.76,10.64.29.0,6,unknown,2,2014-11-15 17:55:36.064,8,2014-11-15 17:52:35.410,3
2014-11-15 17:55:42.918,7625,254.1667,40.10466,-88.22182,235.5181,0.43,29.53125,8,10,1416095742,-0.3902588,-0.2514191,0.9462128,-54.88552,11.91042,12.82114,293.7811,296.8634,15,-0.4787338,-0.08635034,-0.3500126,-1.190419,-2.679857,0.2730058,-0.5141038,-0.06801087,-0.3352887,-0.06100165,-0.03931753,0.05952264,172.17.160.76,10.64.29.0,6,unknown,2,2014-11-15 17:55:36.064,8,2014-11-15 17:52:35.410,3
2014-11-15 17:55:42.951,7626,254.2,40.10466,-88.22182,235.5181,0.43,29.53125,8,10,1416095742,-0.4612885,-0.2823792,0.772171,-55.05713,11.25651,13.45981,293.7625,296.8448,15,-0.3531668,-0.2710821,-0.3217341,-1.185529,-2.682514,0.292289,-0.2370781,-0.05925753,-0.2842675,0.03565634,0.006406655,0.07561219,172.17.160.76,10.64.29.0,6,unknown,2,2014-11-15 17:55:36.064,8,2014-11-15 17:52:35.410,3
2014-11-15 17:55:42.985,7627,254.2334,40.10466,-88.22182,235.5181,0.43,29.53125,8,10,1416095742,-0.6010132,-0.1966858,0.8637085,-55.02282,10.3961,14.16565,293.4194,296.5017,15,-0.1399307,-0.1674457,0.04953187,-1.181066,-2.691103,0.3073908,-0.3079973,-0.1930308,-0.1329145,-0.05196705,0.03534561,-0.09988832,172.17.160.76,10.64.29.0,6,unknown,2,2014-11-15 17:55:36.064,8,2014-11-15 17:52:35.410,3
2014-11-15 17:55:43.018,7628,254.2667,40.10466,-88.22182,235.5181,0.43,29.53125,8,10,1416095742,-0.6329193,-0.3715668,1.027115,-55.29743,10.74026,14.97232,293.9607,297.043,15,-0.1633386,-0.03447302,0.06836494,-1.184595,-2.694042,0.3098799,-0.03991067,-0.05336556,0.08760517,-0.2042324,0.01290627,0.1189069,172.17.160.76,10.64.29.0,6,unknown,2,2014-11-15 17:55:36.064,8,2014-11-15 17:52:35.410,3
2014-11-15 17:55:43.051,7629,254.3,40.10466,-88.22182,235.5181,0.43,29.53125,8,10,1416095742,-0.4372406,-0.2387848,0.8022919,-55.50339,10.67143,15.03955,294.104,297.1863,15,-0.270852,0.2238808,0.08180432,-1.189039,-2.688029,0.3131213,-0.2613822,0.2760953,0.08273895,-0.2004893,-0.03607127,0.1001989,172.17.160.76,10.64.29.0,6,unknown,2,2014-11-15 17:55:36.064,8,2014-11-15 17:52:35.410,3
2014-11-15 17:55:43.084,7630,254.3333,40.10466,-88.22182,235.5181,0.43,29.53125,8,10,1416095742,-0.2906647,-0.2344666,0.9665527,-55.778,11.15326,14.7034,294.5381,297.6204,15,0.1460019,0.04156822,0.02620923,-1.192426,-2.679286,0.3141138,0.1106893,0.2003071,0.05975156,0.1518057,0.1085038,0.03910201,172.17.160.76,10.64.29.0,6,unknown,2,2014-11-15 17:55:36.064,8,2014-11-15 17:52:35.410,3
2014-11-15 17:55:43.118,7631,254.3667,40.10466,-88.22182,235.8986,0.53,352.9688,8,10,1416095743,-0.4236145,-0.2363281,0.9200592,-56.0526,11.01559,13.8295,293.933,297.0153,15,0.1088303,-0.09077491,-0.05395964,-1.189632,-2.67783,0.3079283,0.2195624,0.02212684,-0.030759,0.02197978,0.05917326,0.1786223,172.17.160.76,10.64.29.0,6,unknown,2,2014-11-15 17:55:36.064,8,2014-11-15 17:52:35.410,3
2014-11-15 17:55:43.151,7632,254.4,40.10466,-88.22182,235.8986,0.53,352.9688,8,10,1416095743,-0.4506378,-0.156311,0.8559723,-55.67501,11.18768,13.0564,293.6181,296.7004,15,0.3656158,-0.1182433,-0.01685248,-1.18449,-2.680729,0.3008657,0.3271919,-0.004436596,-0.02387167,0.01373466,0.1239229,0.08858012,172.17.160.76,10.64.29.0,6,unknown,2,2014-11-15 17:55:36.064,8,2014-11-15 17:52:35.410,3
2014-11-15 17:55:43.184,7633,254.4333,40.10466,-88.22182,235.8986,0.53,352.9688,8,10,1416095743,-0.4436646,-0.2487488,0.9238892,-55.43473,11.42858,12.82114,293.0881,296.1704,15,0.5585661,-0.1577119,-0.02521321,-1.180695,-2.682737,0.2941072,0.4326232,-0.05106029,-9.796146e-05,-0.04357944,0.09973045,-0.005111731,172.17.160.76,10.64.29.0,6,unknown,2,2014-11-15 17:55:36.064,8,2014-11-15 17:52:35.410,3
2014-11-15 17:55:43.218,7634,254.4667,40.10466,-88.22182,235.8986,0.53,352.9688,8,10,1416095743,-0.5019531,-0.1904144,0.9422302,-54.91984,11.73832,12.18243,292.8556,295.9379,15,0.663089,-0.1823717,-0.04802558,-1.172247,-2.687544,0.2781228,0.6906165,-0.1023063,-0.01619474,-0.02191119,0.02580224,0.05974459,172.17.160.76,10.64.29.0,6,unknown,2,2014-11-15 17:55:36.064,8,2014-11-15 17:52:35.410,3
2014-11-15 17:55:43.252,7635,254.5,40.10466,-88.22182,235.8986,0.53,352.9688,8,10,1416095743,-0.4848175,-0.1802673,0.9058075,-54.88552,11.84157,12.48495,292.5928,295.6751,15,0.5815265,-0.2767909,0.1078205,-1.161944,-2.694026,0.2590078,0.6808451,-0.1668009,0.02596142,-0.08361553,0.06570716,0.07079727,172.17.160.76,10.64.29.0,6,unknown,2,2014-11-15 17:55:36.064,8,2014-11-15 17:52:35.410,3
2014-11-15 17:55:43.284,7636,254.5333,40.10466,-88.22182,235.8986,0.53,352.9688,8,10,1416095743,-0.5749207,-0.2989044,0.9133911,-54.50793,11.87598,11.91357,290.3969,293.4792,15,0.8678597,-0.2077053,0.2695188,-1.153972,-2.705425,0.2192477,0.9627664,-0.09734638,0.2365062,-0.108198,-0.00908237,0.1323031,172.17.160.76,10.64.29.0,6,unknown,2,2014-11-15 17:55:36.064,8,2014-11-15 17:52:35.410,3
2014-11-15 17:55:43.318,7637,254.5667,40.10466,-88.22182,235.8986,0.53,352.9688,8,10,1416095743,-0.4710999,-0.2166595,0.8838654,-53.9244,12.11689,12.01447,288.895,291.9773,15,0.8921164,-0.1399907,0.3738098,-1.14904,-2.711809,0.1805725,0.8973365,-0.1090909,0.36619,-0.09330469,-0.07886053,-0.02035888,172.17.160.76,10.64.29.0,6,unknown,2,2014-11-15 17:55:36.064,8,2014-11-15 17:52:35.410,3
2014-11-15 17:55:43.351,7638,254.6,40.10466,-88.22182,235.8986,0.53,352.9688,8,10,1416095743,-0.5086212,-0.09225464,1.053101,-52.96328,13.2182,11.81281,288.8469,291.9292,15,1.139649,-0.2066347,0.2876134,-1.14643,-2.714694,0.1475021,1.161759,-0.0954815,0.3557182,-0.09847247,0.03393067,0.1012474,172.17.160.76,10.64.29.0,6,unknown,2,2014-11-15 17:55:36.064,8,2014-11-15 17:52:35.410,3
2014-11-15 17:55:43.384,7639,254.6333,40.10466,-88.22182,235.8986,0.53,352.9688,8,10,1416095743,-0.3977356,-0.177063,0.9361877,-52.68866,13.83768,11.27499,289.2072,292.2895,15,1.064837,-0.3242984,0.3201799,-1.139746,-2.721324,0.1117286,1.134137,-0.270302,0.2795357,-0.01932808,-0.06916776,0.04725708,172.17.160.76,10.64.29.0,6,unknown,2,2014-11-15 17:55:36.064,8,2014-11-15 17:52:35.410,3
2014-11-15 17:55:43.418,7640,254.6667,40.10466,-88.22182,235.8986,0.53,352.9688,8,10,1416095743,-0.5522308,0.09521484,1.047028,-52.03646,15.17991,10.70355,289.0622,292.1445,15,1.303949,-0.2725026,0.5817433,-1.137005,-2.728064,0.07450666,1.257068,-0.1748499,0.5460098,-0.1347486,0.04910816,0.06997091,172.17.160.76,10.64.29.0,6,unknown,2,2014-11-15 17:55:36.064,8,2014-11-15 17:52:35.410,3
2014-11-15 17:55:43.451,7641,254.7,40.10466,-88.22182,235.8986,0.53,352.9688,8,10,1416095743,-0.2217865,-0.172226,0.8538818,-51.45293,16.17799,10.19934,288.5339,291.6162,15,1.428478,-0.220433,0.3076889,-1.135951,-2.734113,0.02985482,1.421429,-0.1722079,0.4838422,0.01684757,0.05763664,0.0387075,172.17.160.76,10.64.29.0,6,unknown,2,2014-11-15 17:55:36.064,8,2014-11-15 17:52:35.410,3
2014-11-15 17:55:43.484,7642,254.7334,40.10466,-88.22182,235.8986,0.53,352.9688,8,10,1416095743,-0.5324707,-0.07626343,1.070358,-51.04102,16.86631,10.26657,288.4849,291.5672,15,1.462971,-0.3337095,0.5065218,-1.12836,-2.739009,-0.01551285,1.540008,-0.2314376,0.3864914,0.08507837,-0.220453,-0.01784152,172.17.160.76,10.64.29.0,6,unknown,2,2014-11-15 17:55:36.064,8,2014-11-15 17:52:35.410,3
2014-11-15 17:55:43.518,7643,254.7667,40.10466,-88.22182,235.8986,0.53,352.9688,8,10,1416095743,-0.402359,0.01506042,0.9230194,-49.90826,19.10336,9.89682,288.9114,291.9937,15,1.356167,-0.144729,0.620434,-1.127794,-2.746728,-0.06509568,1.52822,-0.219033,0.7634268,-0.1935702,-0.0193649,0.1988403,172.17.160.76,10.64.29.0,6,unknown,2,2014-11-15 17:55:36.064,8,2014-11-15 17:52:35.410,3
2014-11-15 17:55:43.551,7644,254.8,40.10466,-88.22182,235.8986,0.53,352.9688,8,10,1416095743,-0.4125214,0.06933594,0.9606628,-49.11876,21.47808,8.989288,288.7954,291.8777,15,1.491051,0.1220846,0.502448,-1.129012,-2.749053,-0.1280117,1.411902,0.05544793,0.5190439,-0.03171188,-0.1338269,-0.05348096,172.17.160.76,10.64.29.0,6,unknown,2,2014-11-15 17:55:36.064,8,2014-11-15 17:52:35.410,3
2014-11-15 17:55:43.584,7645,254.8333,40.10466,-88.22182,235.8986,0.53,352.9688,8,10,1416095743,-0.5802155,0.1742554,0.9853516,-48.43222,22.64824,8.384247,289.8686,292.9509,15,1.408019,-0.01497389,0.7812069,-1.124534,-2.740462,-0.2106816,1.590508,0.1119473,0.6959399,-0.1432897,-0.08891774,0.07271293,172.17.160.76,10.64.29.0,6,unknown,2,2014-11-15 17:55:36.064,8,2014-11-15 17:52:35.410,3
2014-11-15 17:55:43.618,7646,254.8667,40.10466,-88.22182,235.8986,0.53,352.9688,8,10,1416095743,-0.1047974,0.1587372,0.9114227,-46.71594,24.16254,6.905243,290.2352,293.3175,15,1.325271,0.1320342,0.6846345,-1.12815,-2.740199,-0.2438352,1.39382,0.05269115,0.8577096,-0.1675478,-0.0248581,0.11248,172.17.160.76,10.64.29.0,6,unknown,2,2014-11-15 17:55:36.064,8,2014-11-15 17:52:35.410,3
2014-11-15 17:55:43.651,7647,254.9,40.10466,-88.22182,235.8986,0.53,352.9688,8,10,1416095743,-0.3398438,0.1739349,0.8078308,-45.89211,24.78203,6.501923,290.3686,293.4509,15,1.466143,-0.1771492,0.555101,-1.131873,-2.73793,-0.2754646,1.392272,0.1992111,0.7013875,0.1767325,-0.06593939,0.03963351,172.17.160.76,10.64.29.0,6,unknown,2,2014-11-15 17:55:36.064,8,2014-11-15 17:52:35.410,3
2014-11-15 17:55:43.684,7648,254.9333,40.10466,-88.22182,235.8986,0.53,352.9688,8,10,1416095743,-0.3505402,0.4432831,0.9421539,-44.31312,26.77817,5.224609,290.4187,293.501,15,1.44402,-0.08890271,0.8433102,-1.133063,-2.746446,-0.359439,1.544968,-0.2267937,0.863102,-0.2202533,0.06963763,0.1248106,172.17.160.76,10.64.29.0,6,unknown,2,2014-11-15 17:55:36.064,8,2014-11-15 17:52:35.410,3
2014-11-15 17:55:43.718,7649,254.9667,40.10466,-88.22182,235.8986,0.53,352.9688,8,10,1416095743,-0.2492828,0.3488159,0.8087921,-43.42064,28.9808,4.485107,291.106,294.1883,15,1.640229,-0.06944192,0.4764667,-1.136903,-2.745614,-0.4109765,1.603566,0.169823,0.6218916,0.3209396,-0.03304962,0.05653437,172.17.160.76,10.64.29.0,6,unknown,2,2014-11-15 17:55:36.064,8,2014-11-15 17:52:35.410,3
2014-11-15 17:55:43.751,7650,255,40.10466,-88.22182,235.8986,0.53,352.9688,8,10,1416095743,-0.4892883,0.4460602,0.8486023,-42.3222,31.11459,2.602783,292.55,295.6323,15,1.663951,-0.01476563,0.4013005,-1.124944,-2.748552,-0.4825844,1.815917,-0.3332854,0.4252572,-0.2092629,-0.04042493,0.0895969,172.17.160.76,10.64.29.0,6,unknown,2,2014-11-15 17:55:36.064,8,2014-11-15 17:52:35.410,3
2014-11-15 17:55:43.784,7651,255.0333,40.10466,-88.22182,235.8986,0.53,352.9688,8,10,1416095743,-0.4659729,0.4359436,0.8411255,-41.56704,31.94059,2.333893,291.7656,294.8479,15,1.588637,0.3878143,0.3792885,-1.118538,-2.747721,-0.5187121,1.73095,0.05240931,0.4180531,-0.1560033,-0.04970187,0.04664152,172.17.160.76,10.64.29.0,6,unknown,2,2014-11-15 17:55:36.064,8,2014-11-15 17:52:35.410,3
2014-11-15 17:55:43.818,7652,255.0667,40.10466,-88.22182,235.8986,0.53,352.9688,8,10,1416095743,-0.4862213,0.4513092,0.8403015,-40.98349,32.73215,1.224701,292.6443,294.7576,15,1.606638,0.4094008,0.4249785,-1.111971,-2.737729,-0.5524549,1.655636,0.454989,0.3960409,-0.07278807,-0.1071913,0.05188427,172.17.160.76,10.64.29.0,6,unknown,2,2014-11-15 17:55:36.064,8,2014-11-15 17:52:35.410,3
2014-11-15 17:55:43.850,7653,255.1,40.10466,-88.22182,235.8986,0.53,352.9688,8,10,1416095743,-0.5398407,0.4949341,0.6890564,-39.50748,33.59257,-0.960144,291.3848,294.4671,15,1.481682,0.4440975,0.5094861,-1.099713,-2.707918,-0.63669,1.557211,0.4921006,0.5207981,-0.01541108,-0.1138701,0.02947569,172.17.160.76,10.64.29.0,6,unknown,2,2014-11-15 17:55:36.064,8,2014-11-15 17:52:35.410,3
2014-11-15 17:55:43.884,7654,255.1333,40.10466,-88.22182,235.8986,0.53,352.9688,8,10,1416095743,-0.3937378,0.553772,0.8729553,-38.16877,35.27896,-3.14502,291.6558,294.7381,15,1.481058,0.7554557,0.7956052,-1.094008,-2.687618,-0.6860898,1.5516,0.6397166,0.6510972,-0.2005291,-0.1385825,-0.006302762,172.17.160.76,10.64.29.0,6,unknown,2,2014-11-15 17:55:36.064,8,2014-11-15 17:52:35.410,3
2014-11-15 17:55:43.918,7655,255.1667,40.10466,-88.22182,235.8986,0.53,352.9688,8,10,1416095743,-0.2544861,0.6703033,0.4521637,-36.72708,36.6556,-5.229034,175.5373,178.6196,15,1.406988,0.7093937,0.6003274,-1.093659,-2.646111,-0.7730138,1.52591,0.858233,0.7415084,0.1463959,-0.1108323,0.05009859,172.17.160.76,10.64.29.0,6,unknown,2,2014-11-15 17:55:36.064,8,2014-11-15 17:52:35.410,3
2014-11-15 17:55:43.951,7656,255.2,40.10466,-88.22182,235.8986,0.53,352.9688,8,10,1416095743,-0.4635773,0.8097839,0.7377777,-35.04511,37.24068,-8.422272,172.4283,175.5106,15,1.515386,1.009872,0.4359126,-1.082598,-2.614323,-0.8195161,1.5109,0.8781424,0.4211018,-0.00798509,0.008304845,-0.09357815,172.17.160.76,10.64.29.0,6,unknown,2,2014-11-15 17:55:36.064,8,2014-11-15 17:52:35.410,3
2014-11-15 17:55:43.984,7657,255.2334,40.10466,-88.22182,235.8986,0.53,352.9688,8,10,1416095743,-0.2624207,0.7795715,0.5560608,-34.32426,37.41275,-10.13644,176.1185,179.2008,15,1.509304,1.006431,0.6843041,-1.065987,-2.567761,-0.8679857,1.556265,1.191235,0.6582296,-0.007989897,-0.0467352,0.175015,172.17.160.76,10.64.29.0,6,unknown,2,2014-11-15 17:55:36.064,8,2014-11-15 17:52:35.410,3
2014-11-15 17:55:44.017,7658,255.2667,40.10466,-88.22182,235.8986,0.53,352.9688,8,10,1416095743,-0.3375244,0.7079468,0.302536,-32.50499,37.58484,-13.66586,176.2494,179.3317,15,1.339312,0.6558822,0.4039249,-1.049476,-2.526336,-0.9169679,1.477508,0.7661694,0.506617,0.07154007,-0.03123363,-0.05254308,172.17.160.76,10.64.29.0,6,unknown,2,2014-11-15 17:55:36.064,8,2014-11-15 17:52:35.410,3
2014-11-15 17:55:44.050,7659,255.3,40.10466,-88.22182,235.8986,0.53,352.9688,8,10,1416095743,-0.391098,0.7011566,0.3402405,-31.68116,37.65366,-15.27927,176.1241,179.2064,15,1.257023,0.6979479,0.4819427,-1.041626,-2.512776,-0.9310765,1.406308,0.7230538,0.4206765,0.04786282,-0.05850388,-0.1222041,172.17.160.76,10.64.29.0,6,unknown,2,2014-11-15 17:55:36.064,8,2014-11-15 17:52:35.410,3
2014-11-15 17:55:44.084,7660,255.3333,40.10466,-88.22182,235.8986,0.53,352.9688,8,10,1416095743,-0.3203278,0.8720703,0.2660828,-29.96487,38.13551,-18.17001,176.4815,179.5638,15,1.151982,0.578054,0.6398655,-1.007635,-2.439296,-1.012465,1.160257,0.6539866,0.6876659,-0.01015363,0.05081579,0.02882081,172.17.160.76,10.64.29.0,6,unknown,2,2014-11-15 17:55:36.064,8,2014-11-15 17:52:35.410,3
2014-11-15 17:55:44.118,7661,255.3667,40.10466,-88.22183,235.7596,0.5,239.4141,12,10,1416095744,-0.2888184,0.7817688,0.2459564,-28.24858,38.0667,-20.65744,175.8579,178.9402,15,1.162671,0.6886951,0.6584533,-0.9970079,-2.417847,-1.039027,1.218985,0.6452256,0.6566457,0.01544445,0.01015879,-0.1138719,172.17.160.76,10.64.29.0,6,unknown,2,2014-11-15 17:55:36.064,8,2014-11-15 17:52:35.410,3
2014-11-15 17:55:44.151,7662,255.4,40.10466,-88.22183,235.7596,0.5,239.4141,12,10,1416095744,-0.3001099,0.8263245,0.1695862,-26.42929,37.82578,-22.03555,175.0046,178.0869,15,0.8822454,0.4930768,0.6266288,-0.9708533,-2.36692,-1.091262,0.9983953,0.6110526,0.6201398,0.05703117,-0.07924172,-0.0865361,172.17.160.76,10.64.29.0,6,unknown,2,2014-11-15 17:55:36.064,8,2014-11-15 17:52:35.410,3
2014-11-15 17:55:44.184,7663,255.4333,40.10466,-88.22183,235.7596,0.5,239.4141,12,10,1416095744,-0.2055206,0.8861237,0.1245728,-25.60547,37.61928,-22.90945,174.6718,177.7541,15,0.6869848,0.2061601,0.6109883,-0.9456668,-2.316859,-1.148372,0.8893158,0.4267169,0.6864507,0.03898583,-0.1038396,-0.1682391,172.17.160.76,10.64.29.0,2,unknown,2,2014-11-15 17:55:36.064,8,2014-11-15 17:52:35.410,3
2014-11-15 17:55:44.217,7664,255.4667,40.10466,-88.22183,235.7596,0.5,239.4141,12,10,1416095744,-0.2324219,0.9143982,0.1433258,-24.95328,37.72252,-23.34653,174.1289,177.2112,15,0.6869848,0.2061601,0.6109883,-0.9456668,-2.316859,-1.148372,0.8893158,0.4267169,0.6864507,0.03898583,-0.1038396,-0.1682391,172.17.160.76,10.64.29.0,2,unknown,2,2014-11-15 17:55:36.064,8,2014-11-15 17:52:35.410,3
2014-11-15 17:55:44.251,7665,255.5,40.10466,-88.22183,235.7596,0.5,239.4141,12,10,1416095744,-0.2579803,0.8236084,0.1411285,-22.13855,37.86018,-24.69101,173.0478,176.1301,15,0.6027122,0.190367,0.62502,-0.9331634,-2.293613,-1.203421,0.7217793,0.289876,0.7065254,-0.1102523,-0.05252071,0.05069549,172.17.160.76,10.64.29.0,2,unknown,2,2014-11-15 17:55:36.064,8,2014-11-15 17:52:35.410,3
2014-11-15 17:55:44.285,7666,255.5333,40.10466,-88.22183,235.7596,0.5,239.4141,12,10,1416095744,-0.1744995,0.7348938,0.002700806,-21.65799,37.65369,-24.75827,172.0419,175.1242,15,0.07472218,0.1727188,0.364718,-0.9317164,-2.285849,-1.226152,0.2513226,0.1679517,0.4305981,0.09638334,-0.1945528,-0.2031193,172.17.160.76,10.64.29.0,2,unknown,2,2014-11-15 17:55:36.064,8,2014-11-15 17:52:35.410,3
2014-11-15 17:55:44.317,7667,255.5667,40.10466,-88.22183,235.7596,0.5,239.4141,12,10,1416095744,-0.2705841,0.8592987,0.3881531,-20.31928,37.96342,-24.7247,171.9047,174.987,15,0.1598962,0.3613878,0.4492497,-0.9401748,-2.288241,-1.234166,0.1641193,0.3761212,0.4129141,0.0405858,-0.190455,-0.1499502,172.17.160.76,10.64.29.0,2,unknown,2,2014-11-15 17:55:36.064,8,2014-11-15 17:52:35.410,3
2014-11-15 17:55:44.350,7668,255.6,40.10466,-88.22183,235.7596,0.5,239.4141,12,10,1416095744,-0.1331482,0.9143372,0.0164032,-19.90736,38.23877,-24.92636,171.2245,174.3068,15,0.2113887,-0.08816661,0.5814978,-0.9714031,-2.308286,-1.262707,0.3047386,-0.08945756,0.6806136,0.06540235,-0.002215848,-0.01060886,172.17.160.76,10.64.29.0,2,unknown,2,2014-11-15 17:55:36.064,8,2014-11-15 17:52:35.410,3
2014-11-15 17:55:44.384,7669,255.6333,40.10466,-88.22183,235.7596,0.5,239.4141,12,10,1416095744,-0.1477661,0.9154053,0.3254547,-18.15673,38.75502,-25.22879,170.4178,173.5001,15,-0.07912172,-0.02865135,0.4236767,-0.9853824,-2.323117,-1.276565,0.2783879,-0.02099862,0.5982771,0.07858568,-0.04268806,-0.1817672,172.17.160.76,10.64.29.0,2,unknown,2,2014-11-15 17:55:36.064,8,2014-11-15 17:52:35.410,3
2014-11-15 17:55:44.417,7670,255.6667,40.10466,-88.22183,235.7596,0.5,239.4141,12,10,1416095744,-0.3440552,1.001404,0.03849792,-17.19561,39.03033,-25.36325,170.0865,173.1688,15,0.1277508,-0.2391503,0.7041478,-1.029144,-2.366348,-1.29181,0.05021871,-0.2028536,0.5631449,3.337369e-05,0.02696136,0.119227,172.17.160.76,10.64.29.0,2,unknown,2,2014-11-15 17:55:36.064,8,2014-11-15 17:52:35.410,3
2014-11-15 17:55:44.453,7671,255.7,40.10466,-88.22183,235.7596,0.5,239.4141,12,10,1416095744,-0.2577515,0.7884369,-0.1514587,-16.68072,39.27124,-25.39694,168.7438,171.8261,15,-0.08450876,-0.0104087,0.4471456,-1.057608,-2.398046,-1.303688,0.1947493,-0.171983,0.7209269,-0.1653909,0.03686575,-0.1557839,172.17.160.76,10.64.29.0,2,unknown,2,2014-11-15 17:55:36.064,8,2014-11-15 17:52:35.410,3
2014-11-15 17:55:44.484,7672,255.7334,40.10466,-88.22183,235.7596,0.5,239.4141,12,10,1416095744,-0.1997528,1.167694,0.2872772,-16.5091,39.92517,-25.16171,167.1457,170.228,15,-0.1945429,0.3399376,0.2593972,-1.11286,-2.446406,-1.313405,-0.2989247,0.4033551,0.1908182,0.04569664,-0.1863873,0.1094782,172.17.160.76,10.64.29.0,2,unknown,2,2014-11-15 17:55:36.064,8,2014-11-15 17:52:35.410,3
2014-11-15 17:55:44.518,7673,255.7667,40.10466,-88.22183,235.7596,0.5,239.4141,12,10,1416095744,-0.1150055,0.8887482,-0.02667236,-15.71959,40.02841,-25.59866,167.6647,170.747,15,-0.1417534,0.1335985,0.376999,-1.164902,-2.476525,-1.32168,0.05750684,0.2867533,0.3916124,-0.05830157,0.04046716,-0.2278464,172.17.160.76,10.64.29.0,2,unknown,2,2014-11-15 17:55:36.064,8,2014-11-15 17:52:35.410,3
2014-11-15 17:55:44.550,7674,255.8,40.10466,-88.22183,235.7596,0.5,239.4141,12,10,1416095744,-0.0736084,1.012878,0.3947906,-14.82712,40.37257,-25.59866,167.6473,170.7296,15,-0.09321623,-0.1334505,0.4751902,-1.213565,-2.519753,-1.326176,-0.1549813,0.01198068,0.4355432,0.07794095,-0.08909541,0.1896683,172.17.160.76,10.64.29.0,2,unknown,2,2014-11-15 17:55:36.064,8,2014-11-15 17:52:35.410,3
2014-11-15 17:55:44.584,7675,255.8333,40.10466,-88.22183,235.7596,0.5,239.4141,12,10,1416095744,-0.0466156,0.9118805,-0.1186218,-14.14061,40.37257,-25.59866,167.3255,170.4078,15,0.03241706,-0.3279294,0.4790031,-1.265603,-2.573121,-1.336735,0.1695468,-0.1580307,0.5969009,0.05759749,-0.0156402,-0.2966342,172.17.160.76,10.64.29.0,2,unknown,2,2014-11-15 17:55:36.064,8,2014-11-15 17:52:35.410,3
2014-11-15 17:55:44.618,7676,255.8667,40.10466,-88.22183,235.7596,0.5,239.4141,12,10,1416095744,-0.253067,1.018616,0.3610077,-13.17948,40.78558,-25.6658,165.5822,168.6645,15,-0.2277402,0.0007206514,0.2227063,-1.301709,-2.617322,-1.34243,-0.1500021,-0.3304836,0.1110305,-0.05046291,-0.06427807,-0.002849671,172.17.160.76,10.64.29.0,2,unknown,2,2014-11-15 17:55:36.064,8,2014-11-15 17:52:35.410,3
2014-11-15 17:55:44.651,7677,255.9,40.10466,-88.22183,235.7596,0.5,239.4141,12,10,1416095744,-0.205368,0.9032898,-0.1126404,-12.83622,40.7856,-25.26248,166.1031,169.1855,15,-0.06640592,0.4309058,0.2126912,-1.335939,-2.650077,-1.34111,0.001310606,0.3541471,0.3072587,-0.1530146,0.07675351,0.04299332,172.17.160.76,10.64.29.0,2,unknown,2,2014-11-15 17:55:36.064,8,2014-11-15 17:52:35.410,3
2014-11-15 17:55:44.685,7678,255.9333,40.10466,-88.22183,235.7596,0.5,239.4141,12,10,1416095744,-0.06570435,0.893158,0.5402222,-12.63025,40.71677,-25.5986,166.4942,169.5765,15,-0.209945,0.403414,0.0803987,-1.356072,-2.659477,-1.344557,0.0005894196,0.4980699,0.2294696,-0.1013636,-0.0712271,-0.3113862,172.17.160.76,10.64.29.0,2,unknown,2,2014-11-15 17:55:36.064,8,2014-11-15 17:52:35.410,3
2014-11-15 17:55:44.717,7679,255.9667,40.10466,-88.22183,235.7596,0.5,239.4141,12,10,1416095744,0.08683777,0.840271,-0.06184387,-12.76756,40.71677,-25.397,167.0306,170.1129,15,-0.08480304,0.01534194,0.197834,-1.40624,-2.693105,-1.340875,0.1588027,0.11205,0.3393613,-0.02268698,0.1695042,0.1128136,172.17.160.76,10.64.29.0,2,unknown,2,2014-11-15 17:55:36.064,8,2014-11-15 17:52:35.410,3
2014-11-15 17:55:44.751,7680,256,40.10466,-88.22183,235.7596,0.5,239.4141,12,10,1416095744,-0.1937714,0.8866119,0.3817139,-12.32132,40.68233,-25.83395,166.6875,169.7698,15,-0.3925382,-0.07588784,0.05732881,-1.431215,-2.715845,-1.345424,-0.2169301,-0.2213872,0.06090402,0.139855,-0.02878809,-0.3886247,172.17.160.76,10.64.29.0,2,unknown,2,2014-11-15 17:55:36.064,8,2014-11-15 17:52:35.410,3
2014-11-15 17:55:44.784,7681,256.0334,40.10466,-88.22183,235.7596,0.5,239.4141,12,10,1416095744,-0.2460785,1.231674,0.3525085,-12.4243,40.85442,-25.59866,164.7543,167.8366,15,-0.1247262,0.1448397,0.03625867,-1.454509,-2.740632,-1.337955,-0.3852279,0.08069101,0.09178487,-0.1037118,-0.08640283,0.1692721,172.17.160.76,10.64.29.0,2,unknown,2,2014-11-15 17:55:36.064,8,2014-11-15 17:52:35.410,3
2014-11-15 17:55:44.818,7682,256.0667,40.10466,-88.22183,235.7596,0.5,239.4141,12,10,1416095744,0.01524353,0.8656769,0.2605743,-12.49295,41.19859,-26.06924,164.7187,167.801,15,-0.1409425,0.3349096,0.1593907,-1.479127,-2.754849,-1.338928,0.06130262,0.2777914,0.1898684,-0.1417814,0.07066073,-0.08394808,172.17.160.76,10.64.29.0,2,unknown,2,2014-11-15 17:55:36.064,8,2014-11-15 17:52:35.410,3
2014-11-15 17:55:44.851,7683,256.1,40.10466,-88.22183,235.7596,0.5,239.4141,12,10,1416095744,0.04801941,1.001709,0.3764801,-12.11536,41.30183,-25.76669,164.8353,167.9176,15,-0.2021283,0.1081664,0.2412214,-1.487017,-2.758784,-1.339226,-0.07394934,0.4020714,0.1761685,-0.02442624,-0.05141692,-0.08789439,172.17.160.76,10.64.29.0,2,unknown,2,2014-11-15 17:55:36.064,8,2014-11-15 17:52:35.410,3
2014-11-15 17:55:44.884,7684,256.1334,40.10466,-88.22183,235.7596,0.5,239.4141,12,10,1416095744,0.04116821,0.9763336,-0.0664978,-11.66913,41.40508,-25.66586,166.7278,169.8101,15,-0.1566019,-0.04597308,-0.04742238,-1.540193,-2.806261,-1.343656,0.1303666,-0.07831138,0.1749966,0.04865522,0.06300867,-0.2268706,172.17.160.76,10.64.29.0,2,unknown,2,2014-11-15 17:55:36.064,8,2014-11-15 17:52:35.410,3
2014-11-15 17:55:44.918,7685,256.1667,40.10466,-88.22183,235.7596,0.5,239.4141,12,10,1416095744,-0.07720947,1.038284,0.3923645,-10.77665,41.19859,-24.85916,164.4336,167.5159,15,-0.2282262,0.06527621,0.04684208,-1.539139,-2.805158,-1.340833,-0.1014061,-0.007376887,-0.01482887,-0.1263043,-0.1360282,0.1533975,172.17.160.76,10.64.29.0,2,unknown,2,2014-11-15 17:55:36.064,8,2014-11-15 17:52:35.410,3
2014-11-15 17:55:44.951,7686,256.2,40.10466,-88.22183,235.7596,0.5,239.4141,12,10,1416095744,-0.07197571,0.7840271,-0.07894897,-10.94828,41.23297,-25.22885,164.3157,167.398,15,-0.07260017,-0.2669084,-0.03191666,-1.546318,-2.801712,-1.342386,0.2984518,0.20726,0.01027954,0.08317633,0.03163349,-0.08196111,172.17.160.76,10.64.29.0,2,unknown,2,2014-11-15 17:55:36.064,8,2014-11-15 17:52:35.410,3
2014-11-15 17:55:44.984,7687,256.2333,40.10466,-88.22183,235.7596,0.5,239.4141,12,10,1416095744,-0.07962036,0.8396606,0.2327881,-11.18856,41.40506,-25.46414,164.1562,167.2385,15,-0.4367632,-0.1368572,-0.1402623,-1.540733,-2.797763,-1.34534,-0.005608983,-0.1997485,-0.01513933,0.003382253,-0.1906651,-0.2894156,172.17.160.76,10.64.29.0,2,unknown,2,2014-11-15 17:55:36.064,8,2014-11-15 17:52:35.410,3
2014-11-15 17:55:45.018,7688,256.2667,40.10466,-88.22183,235.7596,0.5,239.4141,12,10,1416095744,-0.2312775,0.9221954,0.1373444,-11.73777,41.47389,-25.86758,163.5242,166.6065,15,-0.1833198,0.09579764,0.01074426,-1.543268,-2.802767,-1.332105,-0.3282391,0.04749521,-0.07950273,-0.0970742,-0.07383633,0.08635236,172.17.160.76,10.64.29.0,2,unknown,2,2014-11-15 17:55:36.064,8,2014-11-15 17:52:35.410,3
2014-11-15 17:55:45.051,7689,256.3,40.10466,-88.22183,235.7596,0.5,239.4141,12,10,1416095744,-0.01446533,0.9146118,0.3262787,-11.70346,41.64598,-25.96841,165.7372,168.8195,15,-0.3299995,0.1831403,-0.1113785,-1.549885,-2.805085,-1.327607,-0.1161449,0.208273,-0.02213035,-0.1517674,-0.04837947,-0.0899495,172.17.160.76,10.64.29.0,2,unknown,2,2014-11-15 17:55:36.064,8,2014-11-15 17:52:35.410,3
2014-11-15 17:55:45.084,7690,256.3333,40.10466,-88.22183,235.7596,0.5,239.4141,12,10,1416095744,0.05802917,1.048172,0.2466583,-11.73778,42.09338,-25.59872,165.9323,169.0146,15,-0.3466048,0.1623277,0.08707125,-1.551741,-2.799762,-1.320043,-0.3592397,0.2127324,-0.009520383,0.06039635,-0.102408,0.04377977,172.17.160.76,10.64.29.0,2,unknown,2,2014-11-15 17:55:36.064,8,2014-11-15 17:52:35.410,3
2014-11-15 17:55:45.117,7691,256.3667,40.10466,-88.22185,235.7665,0.25,221.1328,12,10,1416095745,-0.09188843,1.031174,0.3160858,-11.42884,42.12781,-25.49796,166.6495,169.7318,15,-0.2484367,-0.1860708,-0.03189402,-1.572166,-2.812998,-1.312479,-0.2059224,0.2184793,0.05789412,0.1404676,0.08135078,0.004871946,172.17.160.76,10.64.29.0,2,unknown,2,2014-11-15 17:55:36.064,8,2014-11-15 17:52:35.410,3
2014-11-15 17:55:45.151,7692,256.4,40.10466,-88.22185,235.7665,0.25,221.1328,12,10,1416095745,-0.1646729,0.9788055,0.2740326,-11.70346,42.26546,-25.22903,165.6965,168.7788,15,-0.1619,-0.4585798,0.1903196,-1.592688,-2.842306,-1.30306,-0.2077689,-0.4012971,0.1586624,-0.05926872,0.07928323,0.1132538,172.17.160.76,10.64.29.0,2,unknown,2,2014-11-15 17:55:36.064,8,2014-11-15 17:52:35.410,3
2014-11-15 17:55:45.184,7693,256.4333,40.10466,-88.22185,235.7665,0.25,221.1328,12,10,1416095745,-0.1854248,0.8961945,0.2822418,-11.80642,42.02455,-25.32986,164.7952,167.8775,15,0.01377201,-0.4261585,0.2736896,-1.609752,-2.86638,-1.302985,0.01587562,-0.3603832,0.2440203,-0.09276161,0.01445314,0.01936963,172.17.160.76,10.64.29.0,2,unknown,2,2014-11-15 17:55:36.064,8,2014-11-15 17:52:35.410,3
2014-11-15 17:55:45.218,7694,256.4667,40.10466,-88.22185,235.7665,0.25,221.1328,12,10,1416095745,-0.0977478,1.055115,0.1956329,-11.63479,42.33429,-25.49789,163.9827,167.065,15,-0.1194835,-0.2099844,0.3284011,-1.657074,-2.925938,-1.307993,-0.03128977,-0.2607075,0.3551158,-0.1308711,-0.02728053,0.04015917,172.17.160.76,10.64.29.0,2,unknown,2,2014-11-15 17:55:36.064,8,2014-11-15 17:52:35.410,3
2014-11-15 17:55:45.251,7695,256.5,40.10466,-88.22185,235.7665,0.25,221.1328,12,10,1416095745,-0.07675171,0.946106,0.2130432,-11.2572,42.85054,-25.80045,163.7409,166.8232,15,-0.05041577,0.03380457,0.1118224,-1.694006,-2.96409,-1.308821,-0.01268133,0.01486434,0.2641483,-0.05201765,0.08923448,-0.05928679,172.17.160.76,10.64.29.0,2,unknown,2,2014-11-15 17:55:36.064,8,2014-11-15 17:52:35.410,3
2014-11-15 17:55:45.284,7696,256.5334,40.10466,-88.22185,235.7665,0.25,221.1328,12,10,1416095745,0.04017639,0.9442596,0.2069855,-11.1199,42.9882,-25.46432,163.6026,166.6849,15,0.04106115,0.1620219,0.2119344,-1.716513,-2.982298,-1.310217,0.0250554,0.1032088,0.1455861,-0.09632445,-0.03575997,0.03364656,172.17.160.76,10.64.29.0,2,unknown,2,2014-11-15 17:55:36.064,8,2014-11-15 17:52:35.410,3
2014-11-15 17:55:45.318,7697,256.5667,40.10466,-88.22185,235.7665,0.25,221.1328,12,10,1416095745,0.01425171,0.9132385,0.1606293,-10.60501,43.22913,-25.16183,164.4045,167.4868,15,-0.1318339,0.05027196,-0.1053898,-1.738459,-2.997136,-1.31285,-0.01736297,0.3422032,0.1321426,0.07689854,-0.02265626,-0.04545286,172.17.160.76,10.64.29.0,2,unknown,2,2014-11-15 17:55:36.064,8,2014-11-15 17:52:35.410,3
2014-11-15 17:55:45.351,7698,256.6,40.10466,-88.22185,235.7665,0.25,221.1328,12,10,1416095745,0.05433655,1.044601,0.2674103,-10.36472,43.19469,-24.92654,164.4863,167.5686,15,-0.2856981,0.166732,-0.3122509,-1.733719,-2.986954,-1.309895,-0.1679806,0.08912371,-0.1849478,0.05398234,-0.05291924,-0.09424452,172.17.160.76,10.64.29.0,2,unknown,2,2014-11-15 17:55:36.064,8,2014-11-15 17:52:35.410,3
2014-11-15 17:55:45.384,7699,256.6334,40.10466,-88.22185,235.7665,0.25,221.1328,12,10,1416095745,0.02339172,0.9215393,0.114212,-10.36473,42.91936,-25.26266,164.6605,167.7428,15,-0.1018358,0.1621982,-0.4796159,-1.692114,-2.937606,-1.301094,-0.03178412,0.3020871,-0.3987558,0.1083116,0.08075126,0.006489763,172.17.160.76,10.64.29.0,2,unknown,2,2014-11-15 17:55:36.064,8,2014-11-15 17:52:35.410,3
2014-11-15 17:55:45.420,7700,256.6667,40.10466,-88.22185,235.7665,0.25,221.1328,12,10,1416095745,-0.1161804,0.8349152,0.2677917,-11.53181,43.19469,-25.86765,164.104,167.1864,15,-0.2593876,-0.2486865,-0.3049836,-1.628851,-2.874681,-1.29481,-0.1163848,-0.1536314,-0.3881012,0.01535335,-0.1285845,-0.1757039,172.17.160.76,10.64.29.0,2,unknown,2,2014-11-15 17:55:36.064,8,2014-11-15 17:52:35.410,3
2014-11-15 17:55:45.451,7701,256.7,40.10466,-88.22185,235.7665,0.25,221.1328,12,10,1416095745,-0.0324707,0.9607239,0.2285309,-12.0467,43.29794,-26.10294,164.9118,167.9941,15,-0.3470765,-0.2351885,-0.2111738,-1.610609,-2.862314,-1.28595,-0.3014454,-0.1626078,-0.1804667,0.0217235,-0.06657754,0.002263012,172.17.160.76,10.64.29.0,2,unknown,2,2014-11-15 17:55:36.064,8,2014-11-15 17:52:35.410,3
2014-11-15 17:55:45.484,7702,256.7333,40.10466,-88.22185,235.7665,0.25,221.1328,12,10,1416095745,-0.1124573,0.9651184,0.3257751,-12.9735,43.88301,-25.93491,165.0653,168.1476,15,-0.2989039,-0.3400425,-0.3042552,-1.59552,-2.853893,-1.276628,-0.2266328,-0.2610599,-0.2683069,0.02547766,0.0006895686,-0.07119423,172.17.160.76,10.64.29.0,2,unknown,2,2014-11-15 17:55:36.064,8,2014-11-15 17:52:35.410,3
2014-11-15 17:55:45.518,7703,256.7667,40.10466,-88.22185,235.7665,0.25,221.1328,12,10,1416095745,-0.04981995,1.018372,0.2323456,-13.31676,43.81418,-25.19547,164.634,167.7163,15,-0.3794411,-0.1863089,-0.07174103,-1.577774,-2.845187,-1.26621,-0.3579172,-0.266987,-0.2168954,-0.02647895,0.02742837,0.07145586,172.17.160.76,10.64.29.0,2,unknown,2,2014-11-15 17:55:36.064,8,2014-11-15 17:52:35.410,3
2014-11-15 17:55:45.551,7704,256.8,40.10466,-88.22185,235.7665,0.25,221.1328,12,10,1416095745,-0.1120911,0.9557495,0.4471283,-13.763,43.8486,-24.96017,165.3683,168.4506,15,-0.2420204,-0.3979791,-0.09247693,-1.579133,-2.851825,-1.253923,-0.2132814,-0.1001117,-0.05945907,0.03396358,0.04938886,-0.07735395,172.17.160.76,10.64.29.0,2,unknown,2,2014-11-15 17:55:36.064,8,2014-11-15 17:52:35.410,3
2014-11-15 17:55:45.584,7705,256.8333,40.10466,-88.22185,235.7665,0.25,221.1328,12,10,1416095745,-0.224823,1.108978,0.3262939,-13.72868,43.883,-24.52316,165.2443,168.3266,15,-0.2016306,-0.6265864,-0.1108157,-1.578277,-2.855966,-1.249321,-0.175032,-0.3308274,-0.07567805,-0.02306481,0.006979113,0.1439632,172.17.160.76,10.64.29.0,2,unknown,2,2014-11-15 17:55:36.064,8,2014-11-15 17:52:35.410,3
2014-11-15 17:55:45.618,7706,256.8667,40.10466,-88.22185,235.7665,0.25,221.1328,12,10,1416095745,-0.1286774,0.8571777,0.2227173,-13.96895,43.71094,-24.35513,164.7576,167.8399,15,0.08675247,-0.2666607,0.1521858,-1.577974,-2.873109,-1.24789,0.292331,-0.175099,0.1739016,-0.1406464,0.1606611,0.02033836,172.17.160.76,10.64.29.0,2,unknown,2,2014-11-15 17:55:36.064,8,2014-11-15 17:52:35.410,3
2014-11-15 17:55:45.651,7707,256.9,40.10466,-88.22185,235.7665,0.25,221.1328,12,10,1416095745,-0.03790283,0.7579346,0.2070465,-14.00328,43.74535,-24.52316,164.7166,167.7989,15,-0.1393464,-0.2546035,0.1870634,-1.585984,-2.883706,-1.254248,0.15374,-0.1995099,0.1689845,-0.1459363,-0.01234245,-0.06765713,172.17.160.76,10.64.29.0,2,unknown,2,2014-11-15 17:55:36.064,8,2014-11-15 17:52:35.410,3
2014-11-15 17:55:45.684,7708,256.9333,40.10466,-88.22185,235.7665,0.25,221.1328,12,10,1416095745,-0.1159668,0.9295349,0.2075195,-14.14058,43.53886,-24.45584,163.8315,166.9138,15,-0.1379179,-0.130423,-0.254926,-1.597895,-2.903936,-1.251694,-0.09969331,-0.06011868,-0.2443721,0.03290173,-0.03908661,-0.08042421,172.17.160.76,10.64.29.0,2,unknown,2,2014-11-15 17:55:36.064,8,2014-11-15 17:52:35.410,3
2014-11-15 17:55:45.718,7709,256.9667,40.10466,-88.22185,235.7665,0.25,221.1328,12,10,1416095745,-0.008148193,0.9283752,0.297226,-14.51817,43.98627,-24.28787,163.4017,166.484,15,-0.2301171,-0.1503749,-0.08803318,-1.586177,-2.894149,-1.249103,-0.09679577,-0.0764031,-0.1489354,-0.03852777,-0.01916659,-0.09902353,172.17.160.76,10.64.29.0,2,unknown,2,2014-11-15 17:55:36.064,8,2014-11-15 17:52:35.410,3
2014-11-15 17:55:45.751,7710,257,40.10466,-88.22185,235.7665,0.25,221.1328,12,10,1416095745,-0.09092712,0.8750305,0.3083038,-14.68981,43.95186,-23.91812,163.7224,166.8047,15,-0.4354726,-0.1917135,-0.228659,-1.58421,-2.893785,-1.245102,-0.2515678,-0.0598758,-0.08033404,-0.04032376,-0.1010238,-0.04980104,172.17.160.76,10.64.29.0,2,unknown,2,2014-11-15 17:55:36.064,8,2014-11-15 17:52:35.410,3
2014-11-15 17:55:45.784,7711,257.0334,40.10466,-88.22185,235.7665,0.25,221.1328,12,10,1416095745,-0.3029938,1.291809,0.6229401,-15.54795,43.91743,-23.88455,162.7873,165.8696,15,-0.1831815,-0.5550177,-0.2007339,-1.570122,-2.891093,-1.227384,-0.09473003,-0.317924,-0.1905495,-0.03335709,-0.01129816,0.3077333,172.17.160.76,10.64.29.0,2,unknown,2,2014-11-15 17:55:36.064,8,2014-11-15 17:52:35.410,3
2014-11-15 17:55:45.817,7712,257.0667,40.10466,-88.22185,235.7665,0.25,221.1328,12,10,1416095745,-0.08651733,0.8497467,0.5181122,-16.09716,43.91745,-23.68283,162.5737,165.656,15,-0.1534228,-0.04166835,-0.03998124,-1.556446,-2.894249,-1.223133,-0.1227293,-0.5258688,-0.150142,-0.2439636,0.4099262,0.05951408,172.17.160.76,10.64.29.0,2,unknown,2,2014-11-15 17:55:36.064,8,2014-11-15 17:52:35.410,3
2014-11-15 17:55:45.851,7713,257.1,40.10466,-88.22185,235.7665,0.25,221.1328,12,10,1416095745,-0.1554718,0.7971497,0.1018219,-16.1315,43.88304,-23.582,162.5023,165.5846,10,-0.3301824,-0.05167864,-0.1104914,-1.556612,-2.886518,-1.225065,0.05759546,-0.03983923,-0.0803231,-0.1970251,-0.09160008,0.1206582,172.17.160.76,10.64.29.0,2,unknown,2,2014-11-15 17:55:36.064,8,2014-11-15 17:52:35.410,3
2014-11-15 17:55:45.884,7714,257.1334,40.10466,-88.22185,235.7665,0.25,221.1328,12,10,1416095745,-0.134552,0.7310028,0.4276581,-16.23447,44.05511,-23.34671,162.4688,165.5511,10,-0.1660758,0.6553006,0.0911142,-1.550986,-2.884904,-1.221437,-0.2632036,0.01546424,-0.09369144,-0.06857007,-0.1424427,-0.2292585,172.17.160.76,10.64.29.0,2,unknown,2,2014-11-15 17:55:36.064,8,2014-11-15 17:52:35.410,3
