time,timestamp,recordtime,lat,long,alt,speed,course,verticalAccuracy,horizontalAccuracy,locTimeStamp,accelerationX,accelerationY,accelerationZ,HeadingX,HeadingY,HeadingZ,TrueHeading,MagneticHeading,HeadingAccuracy,RotationX,RotationY,RotationZ,motionYaw,motionRoll,motionPitch,motionRotationRateX,motionRotationRateY,motionRotationRateZ,motionUserAccelerationX,motionUserAccelerationY,motionUserAccelerationZ,en0,pdp_ip0,DeviceOrientation,Activity,Activity Confidence,Activity Start,Steps,Last Step Date,State
2014-11-15 17:56:12.251,8505,283.5,40.10474,-88.222,235.6969,0.85,147.6562,8,10,1416095772,-0.04252625,0.8876801,0.2563019,-12.32114,40.81996,-24.15384,175.9867,179.069,15,-0.4313634,-0.7598238,-0.321892,-1.373216,-2.639811,-1.26302,-0.3255746,-0.7310865,-0.2444537,0.05406647,-0.1854314,-0.1434495,172.17.160.76,10.64.29.0,2,unknown,2,2014-11-15 17:55:53.389,8,2014-11-15 17:52:35.410,3
2014-11-15 17:56:12.284,8506,283.5334,40.10474,-88.222,235.6969,0.85,147.6562,8,10,1416095772,-0.06480408,0.9684448,0.2112122,-13.07631,40.88879,-23.68326,175.1605,178.2428,15,-0.5285863,-0.7044237,-0.5908526,-1.365545,-2.646087,-1.25306,-0.4240868,-0.6399971,-0.4304261,0.1060208,-0.06226494,-0.01854041,172.17.160.76,10.64.29.0,2,unknown,2,2014-11-15 17:55:53.389,8,2014-11-15 17:52:35.410,3
2014-11-15 17:56:12.318,8507,283.5667,40.10474,-88.222,235.6969,0.85,147.6562,8,10,1416095772,-0.119278,0.8001709,0.1930084,-14.72396,41.37062,-22.47318,174.8969,177.9792,15,-0.6044078,-0.8701357,-0.5893184,-1.32134,-2.633943,-1.224695,-0.4629285,-0.8512118,-0.6840257,0.04015384,0.01651204,-0.08681176,172.17.160.76,10.64.29.0,2,unknown,2,2014-11-15 17:55:53.389,8,2014-11-15 17:52:35.410,3
2014-11-15 17:56:12.351,8508,283.6,40.10474,-88.222,235.6969,0.85,147.6562,8,10,1416095772,0.00994873,0.9396973,0.2621765,-15.99401,41.54269,-21.6329,174.33,177.4124,15,-0.958158,-0.8949021,-0.6549975,-1.306481,-2.642843,-1.20024,-0.7863144,-0.7234428,-0.5282272,0.05394077,-0.1319551,-0.125011,172.17.160.76,10.64.29.0,2,unknown,2,2014-11-15 17:55:53.389,8,2014-11-15 17:52:35.410,3
2014-11-15 17:56:12.384,8509,283.6334,40.10474,-88.222,235.6969,0.85,147.6562,8,10,1416095772,-0.2722015,0.9434967,0.4490814,-18.32818,41.61153,-20.28836,172.0384,175.1207,15,-0.9731774,-1.203927,-1.055686,-1.287509,-2.653156,-1.165427,-0.9281374,-1.080484,-0.9626746,0.1949999,0.02074046,-0.08606832,172.17.160.76,10.64.29.0,2,unknown,2,2014-11-15 17:55:53.389,8,2014-11-15 17:52:35.410,3
2014-11-15 17:56:12.418,8510,283.6667,40.10474,-88.222,235.6969,0.85,147.6562,8,10,1416095772,-0.1642303,0.7246094,0.4049835,-20.66236,41.61153,-18.5405,172.2322,175.3145,15,-0.9827797,-0.9414765,-0.6328595,-1.248854,-2.660446,-1.118517,-0.7924376,-0.9317486,-0.674738,-0.06995205,0.04404329,0.0616815,172.17.160.76,10.64.29.0,2,unknown,2,2014-11-15 17:55:53.389,8,2014-11-15 17:52:35.410,3
2014-11-15 17:56:12.451,8511,283.7,40.10474,-88.222,235.6969,0.85,147.6562,8,10,1416095772,-0.3246155,0.7456207,0.4432526,-21.55483,41.19853,-17.86819,171.1273,174.2096,15,-0.9827797,-0.9414765,-0.6328595,-1.245333,-2.666084,-1.108261,-0.8587166,-0.868447,-0.5977298,0.02217648,-0.129482,0.006589792,172.17.160.76,10.64.29.0,2,unknown,2,2014-11-15 17:55:53.389,8,2014-11-15 17:52:35.410,3
2014-11-15 17:56:12.484,8512,283.7333,40.10474,-88.222,235.6969,0.85,147.6562,8,10,1416095772,-0.2612762,0.7351532,0.550354,-23.68304,41.26738,-15.58255,170.6111,173.6934,15,-0.9064682,-0.5752449,-0.3923832,-1.225579,-2.697574,-1.052889,-0.8139754,-0.8992615,-0.5948753,-0.225781,-0.02727365,0.05135464,172.17.160.76,10.64.29.0,2,unknown,2,2014-11-15 17:55:53.389,8,2014-11-15 17:52:35.410,3
2014-11-15 17:56:12.517,8513,283.7667,40.10474,-88.222,235.6969,0.85,147.6562,8,10,1416095772,-0.2466278,0.7828979,0.4346313,-25.74259,41.1297,-13.83469,169.8,172.8823,15,-1.219067,-0.5611786,-0.660755,-1.223981,-2.717894,-1.01341,-1.063398,-0.4542271,-0.4928801,0.04560288,-0.1142506,-0.04925751,172.17.160.76,10.64.29.0,2,unknown,2,2014-11-15 17:55:53.389,8,2014-11-15 17:52:35.410,3
2014-11-15 17:56:12.551,8514,283.8,40.10474,-88.222,235.6969,0.85,147.6562,8,10,1416095772,-0.329422,0.8860931,0.6527252,-26.73804,41.30179,-12.25491,169.498,172.5803,15,-1.203799,-0.4066136,-0.7353635,-1.214571,-2.725712,-0.9729386,-1.173448,-0.5286181,-0.7837059,-0.1203647,-0.005101696,-0.05578779,172.17.160.76,10.64.29.0,2,unknown,2,2014-11-15 17:55:53.389,8,2014-11-15 17:52:35.410,3
2014-11-15 17:56:12.585,8515,283.8333,40.10474,-88.222,235.6969,0.85,147.6562,8,10,1416095772,-0.2462311,0.7811127,0.4603271,-27.83647,41.30177,-10.57425,171.1675,174.2498,15,-1.257206,-0.1753074,-0.6415965,-1.206698,-2.725327,-0.9213722,-1.183295,-0.00420008,-0.5664882,-0.01635917,0.06253085,0.1272563,172.17.160.76,10.64.29.0,2,unknown,2,2014-11-15 17:55:53.389,8,2014-11-15 17:52:35.410,3
2014-11-15 17:56:12.618,8516,283.8667,40.10474,-88.222,235.6969,0.85,147.6562,8,10,1416095772,-0.3566437,0.5674744,0.5419159,-28.7976,40.95763,-8.557465,173.8211,176.9034,15,-1.065653,-0.4119639,-0.5904859,-1.20027,-2.726449,-0.8823438,-1.043626,-0.341786,-0.6579536,0.01001619,0.008882536,-0.1210488,172.17.160.76,10.64.29.0,2,unknown,2,2014-11-15 17:55:53.389,8,2014-11-15 17:52:35.410,3
2014-11-15 17:56:12.651,8517,283.9,40.10474,-88.222,235.6969,0.85,147.6562,8,10,1416095772,-0.1791534,0.62677,0.6840057,-29.41546,40.75111,-8.019623,174.9757,178.058,15,-1.448236,-0.2896774,-0.6022086,-1.197461,-2.732564,-0.8471164,-1.146419,-0.1532394,-0.4602017,-0.09329607,-0.1818998,-0.06560897,172.17.160.76,10.64.29.0,2,unknown,2,2014-11-15 17:55:53.389,8,2014-11-15 17:52:35.410,3
2014-11-15 17:56:12.685,8518,283.9333,40.10474,-88.222,235.6969,0.85,147.6562,8,10,1416095772,-0.3742371,0.6400604,0.5460358,-31.40637,40.4758,-6.406219,174.472,177.5543,15,-1.426856,-0.5346935,-0.6842515,-1.198649,-2.736312,-0.8189584,-1.381691,-0.2231417,-0.5860052,0.05654616,-0.1563534,0.01623522,172.17.160.76,10.64.29.0,2,unknown,2,2014-11-15 17:55:53.389,8,2014-11-15 17:52:35.410,3
2014-11-15 17:56:12.718,8519,283.9667,40.10474,-88.222,235.6969,0.85,147.6562,8,10,1416095772,-0.2481384,0.6012878,0.7501831,-33.01969,39.6842,-4.423126,177.5159,180.5982,15,-1.55734,-0.3706843,-0.5013859,-1.194078,-2.758026,-0.7605296,-1.319266,-0.6808353,-0.54619,-0.103118,-0.04924478,-0.1257922,172.17.160.76,10.64.29.0,2,unknown,2,2014-11-15 17:55:53.389,8,2014-11-15 17:52:35.410,3
2014-11-15 17:56:12.751,8520,284,40.10474,-88.222,235.6969,0.85,147.6562,8,10,1416095772,-0.4621124,0.6283264,0.7534943,-33.87783,39.71864,-3.313873,176.737,179.8193,15,-1.711335,-0.4497829,-0.7145836,-1.196967,-2.771324,-0.7138875,-1.633359,-0.2132459,-0.5574124,0.02536769,-0.05348909,0.04558281,172.17.160.76,10.64.29.0,2,unknown,2,2014-11-15 17:55:53.389,8,2014-11-15 17:52:35.410,3
2014-11-15 17:56:12.784,8521,284.0334,40.10474,-88.222,235.6969,0.85,147.6562,8,10,1416095772,-0.240448,0.3951416,0.7564545,-35.5598,38.5829,-0.9273987,300.1949,303.2773,15,-1.539369,-0.09245164,-0.3800406,-1.195738,-2.783999,-0.6446349,-1.483223,-0.3395634,-0.5310414,-0.1823338,0.02741975,0.004738583,172.17.160.76,10.64.29.0,2,unknown,2,2014-11-15 17:55:53.389,8,2014-11-15 17:52:35.410,3
2014-11-15 17:56:12.818,8522,284.0667,40.10474,-88.222,235.6969,0.85,147.6562,8,10,1416095772,-0.3557587,0.4962006,0.8625488,-36.96718,37.72249,1.055756,302.4611,305.5434,15,-1.811356,-0.04991509,-0.6749516,-1.202078,-2.787917,-0.581103,-1.720497,0.2012911,-0.5442886,0.1949693,-0.1632345,-0.06859282,172.17.160.76,10.64.29.0,2,unknown,2,2014-11-15 17:55:53.389,8,2014-11-15 17:52:35.410,3
2014-11-15 17:56:12.851,8523,284.1,40.10474,-88.222,235.6969,0.85,147.6562,8,10,1416095772,-0.4892578,0.5127106,0.8978271,-37.9283,36.96534,2.064178,302.146,305.2283,15,-1.698134,-0.4726317,-0.502457,-1.201694,-2.788917,-0.5441143,-1.700198,-0.2587378,-0.676288,0.1188923,-0.06453549,-0.040109,172.17.160.76,10.64.29.0,2,unknown,2,2014-11-15 17:55:53.389,8,2014-11-15 17:52:35.410,3
2014-11-15 17:56:12.884,8524,284.1334,40.10474,-88.222,235.6969,0.85,147.6562,8,10,1416095772,-0.2624512,0.4415131,0.7998352,-39.40432,36.10493,4.047333,302.1964,305.2787,15,-1.785381,-0.0759182,-0.4575819,-1.209046,-2.803493,-0.456821,-1.756198,0.06846666,-0.4058005,-0.0008709836,0.03256605,-0.02285974,172.17.160.76,10.64.29.0,2,unknown,2,2014-11-15 17:55:53.389,8,2014-11-15 17:52:35.410,3
2014-11-15 17:56:12.918,8525,284.1667,40.10474,-88.222,235.6969,0.85,147.6562,8,10,1416095772,-0.4117737,0.3229675,1.033112,-40.60572,34.9692,5.963287,301.6033,304.6856,15,-1.649169,-0.2691321,-0.4262035,-1.212372,-2.80591,-0.4218358,-1.656074,-0.1560003,-0.434956,0.03808555,0.03207701,-0.06158211,172.17.160.76,10.64.29.0,2,unknown,2,2014-11-15 17:55:53.389,8,2014-11-15 17:52:35.410,3
2014-11-15 17:56:12.951,8526,284.2,40.10474,-88.222,235.6969,0.85,147.6562,8,10,1416095772,-0.1092682,0.254776,0.8778534,-40.74302,34.34972,6.77002,302.6035,305.6858,15,-1.589468,0.05287067,-0.6985937,-1.217403,-2.809189,-0.3611607,-1.423512,0.1511506,-0.4108569,-0.1065088,-0.03039273,0.1488323,172.17.160.76,10.64.29.0,2,unknown,2,2014-11-15 17:55:53.389,8,2014-11-15 17:52:35.410,3
2014-11-15 17:56:12.985,8527,284.2333,40.10474,-88.222,235.6969,0.85,147.6562,8,10,1416095772,-0.4444733,0.1710052,1.006485,-41.42954,32.8354,8.047302,302.7641,305.8464,15,-1.503102,-0.2431668,-0.7790257,-1.213936,-2.80411,-0.3121878,-1.531133,0.05791935,-0.8047549,0.2058399,-0.05236538,-0.02012825,172.17.160.76,10.64.29.0,2,unknown,2,2014-11-15 17:55:53.389,8,2014-11-15 17:52:35.410,3
2014-11-15 17:56:13.018,8528,284.2667,40.10474,-88.222,235.6969,0.85,147.6562,8,10,1416095772,-0.3647308,0.2563629,1.014297,-42.80257,30.97694,9.324615,301.658,304.7403,15,-1.466983,0.06054324,-0.6597372,-1.205001,-2.80596,-0.2474582,-1.429454,-0.07780978,-0.6200911,-0.1177092,-0.03230917,0.1486773,172.17.160.76,10.64.29.0,2,unknown,2,2014-11-15 17:55:53.389,8,2014-11-15 17:52:35.410,3
2014-11-15 17:56:13.051,8529,284.3,40.10474,-88.222,235.6969,0.85,147.6562,8,10,1416095772,-0.4723206,0.06234741,0.9742889,-43.72938,30.2542,10.09769,301.8345,304.9168,15,-1.475647,-0.03066843,-0.6378939,-1.200867,-2.802948,-0.2013723,-1.382343,0.08347405,-0.6470168,-0.03551186,0.02160459,-0.02062787,172.17.160.76,10.64.29.0,2,unknown,2,2014-11-15 17:55:53.389,8,2014-11-15 17:52:35.410,3
2014-11-15 17:56:13.084,8530,284.3333,40.10474,-88.222,235.6969,0.85,147.6562,8,10,1416095772,-0.3747864,0.01690674,1.117432,-45.48001,28.43014,11.20691,301.2005,304.2828,15,-1.461005,0.1254626,-0.5044413,-1.197421,-2.801075,-0.1556153,-1.389113,0.02479409,-0.5379679,-0.142381,-0.09264062,0.04309692,172.17.160.76,10.64.29.0,2,unknown,2,2014-11-15 17:55:53.389,8,2014-11-15 17:52:35.410,3
2014-11-15 17:56:13.118,8531,284.3667,40.10473,-88.22198,235.6694,0.64,90.35156,8,10,1416095773,-0.2571869,-0.05137634,0.924469,-46.99035,26.70931,12.14807,300.6179,303.7002,15,-1.576839,0.08947209,-0.6347594,-1.196567,-2.795406,-0.09501113,-1.49857,0.147471,-0.6218308,-0.01861641,-0.1150404,0.03224294,172.17.160.76,10.64.29.0,6,unknown,2,2014-11-15 17:55:53.389,8,2014-11-15 17:52:35.410,3
2014-11-15 17:56:13.151,8532,284.4,40.10473,-88.22198,235.6694,0.64,90.35156,8,10,1416095773,-0.2247162,0.01667786,1.136215,-47.53955,25.60799,12.48422,300.4593,303.5416,15,-1.409549,-0.001963282,-0.6316214,-1.194598,-2.787302,-0.03156627,-1.412354,0.18183,-0.5688987,0.1095541,-0.04067052,0.0536021,172.17.160.76,10.64.29.0,6,unknown,2,2014-11-15 17:55:53.389,8,2014-11-15 17:52:35.410,3
2014-11-15 17:56:13.184,8533,284.4333,40.10473,-88.22198,235.6694,0.64,90.35156,8,10,1416095773,-0.3704987,-0.01473999,0.966217,-48.05445,23.57744,13.9296,300.4225,303.5048,15,-1.306926,-0.2071204,-0.7774476,-1.189309,-2.787608,0.01233399,-1.276586,-0.1162057,-0.7705352,0.06584973,0.02660065,0.128387,172.17.160.76,10.64.29.0,6,unknown,2,2014-11-15 17:55:53.389,8,2014-11-15 17:52:35.410,3
2014-11-15 17:56:13.218,8534,284.4667,40.10473,-88.22198,235.6694,0.64,90.35156,8,10,1416095773,-0.3970184,-0.0994873,0.9975586,-48.87826,21.78781,15.6102,299.7856,302.8679,15,-1.270144,-0.1930376,-0.5981207,-1.183969,-2.790512,0.04038187,-1.183077,-0.1367858,-0.6754604,-0.02686614,0.02563091,0.02798099,172.17.160.76,10.64.29.0,6,unknown,2,2014-11-15 17:55:53.389,8,2014-11-15 17:52:35.410,3
2014-11-15 17:56:13.251,8535,284.5,40.10473,-88.22198,235.6694,0.64,90.35156,8,10,1416095773,-0.4566956,-0.1463013,0.9714661,-49.49613,21.23716,16.61859,300.1394,303.2217,15,-1.095949,-0.1031634,-0.3637122,-1.183381,-2.800912,0.1010329,-1.065972,-0.2413001,-0.2953774,-0.1039305,-0.0241847,0.1577991,172.17.160.76,10.64.29.0,6,unknown,2,2014-11-15 17:55:53.389,8,2014-11-15 17:52:35.410,3
2014-11-15 17:56:13.285,8536,284.5334,40.10473,-88.22198,235.6694,0.64,90.35156,8,10,1416095773,-0.2896729,-0.1624908,0.8701935,-50.76619,19.96376,18.7363,299.8137,302.896,15,-1.11086,-0.169197,-0.3852337,-1.184064,-2.802739,0.1339238,-0.9972771,0.08645792,-0.3671511,-0.1272661,-0.01277747,0.03677487,172.17.160.76,10.64.29.0,6,unknown,2,2014-11-15 17:55:53.389,8,2014-11-15 17:52:35.410,3
2014-11-15 17:56:13.318,8537,284.5667,40.10473,-88.22198,235.6694,0.64,90.35156,8,10,1416095773,-0.5026703,-0.1810913,1.001266,-51.41838,18.82803,20.85388,300.608,303.6903,15,-1.099711,-0.2305701,-0.2093926,-1.184127,-2.804776,0.1666192,-1.038223,-0.2669451,-0.3126003,0.04003372,-0.03933562,0.01242015,172.17.160.76,10.64.29.0,6,unknown,2,2014-11-15 17:55:53.389,8,2014-11-15 17:52:35.410,3
2014-11-15 17:56:13.351,8538,284.6,40.10473,-88.22198,235.6694,0.64,90.35156,8,10,1416095773,-0.2875824,-0.1561584,0.8903046,-51.21243,18.13969,21.66061,300.4744,303.5567,15,-0.8591403,0.08692398,-0.3635979,-1.188047,-2.809177,0.197304,-0.9530514,-0.02930097,-0.215073,-0.2137256,0.02488379,0.08210047,172.17.160.76,10.64.29.0,6,unknown,2,2014-11-15 17:55:53.389,8,2014-11-15 17:52:35.410,3
2014-11-15 17:56:13.384,8539,284.6334,40.10473,-88.22198,235.6694,0.64,90.35156,8,10,1416095773,-0.3927002,-0.1547394,0.9599457,-51.693,16.83188,23.20685,301.1441,304.2264,10,-0.9228338,-0.264502,-0.189004,-1.186974,-2.8063,0.2237861,-0.812856,0.0991343,-0.3646037,0.03325778,0.06576441,-0.03046241,172.17.160.76,10.64.29.0,6,unknown,2,2014-11-15 17:55:53.389,8,2014-11-15 17:52:35.410,3
2014-11-15 17:56:13.418,8540,284.6667,40.10473,-88.22198,235.6694,0.64,90.35156,8,10,1416095773,-0.5374756,-0.1522827,1.02948,-51.96759,16.14355,24.3497,301.6656,304.7479,10,-0.787681,-0.1330308,-0.07736216,-1.189408,-2.80948,0.2498644,-0.8000553,-0.1963161,-0.08916081,-0.07678435,0.09253318,0.04394706,172.17.160.76,10.64.29.0,6,unknown,2,2014-11-15 17:55:53.389,8,2014-11-15 17:52:35.410,3
2014-11-15 17:56:13.451,8541,284.7,40.10473,-88.22198,235.6694,0.64,90.35156,8,10,1416095773,-0.2409363,-0.2532959,0.9311676,-52.55114,15.76498,24.71942,301.7819,304.8642,10,-0.6415164,-0.08814637,-0.4576837,-1.189001,-2.805209,0.28288,-0.6003869,0.1503836,-0.4596016,0.1441664,-0.05541131,-0.01561417,172.17.160.76,10.64.29.0,6,unknown,2,2014-11-15 17:55:53.389,8,2014-11-15 17:52:35.410,3
2014-11-15 17:56:13.485,8542,284.7333,40.10473,-88.22198,235.6694,0.64,90.35156,8,10,1416095773,-0.5346222,-0.08520508,1.098053,-52.65412,14.97341,25.49258,302.1139,305.1962,10,-0.2927887,-0.1349397,-0.1588365,-1.184651,-2.807096,0.2960317,-0.4953661,-0.09748708,-0.3509061,0.07307702,0.03843099,0.02767932,172.17.160.76,10.64.29.0,6,unknown,2,2014-11-15 17:55:53.389,8,2014-11-15 17:52:35.410,3
2014-11-15 17:56:13.518,8543,284.7667,40.10473,-88.22198,235.6694,0.64,90.35156,8,10,1416095773,-0.2624359,-0.3852081,0.9410706,-53.20332,14.28508,25.96317,301.5756,304.6579,10,-0.09994151,-0.01339623,-0.09204524,-1.182116,-2.810013,0.3052611,-0.07397878,-0.00633866,-0.07283434,-0.2241356,0.2153372,0.1962368,172.17.160.76,10.64.29.0,6,unknown,2,2014-11-15 17:55:53.389,8,2014-11-15 17:52:35.410,3
2014-11-15 17:56:13.551,8544,284.8,40.10473,-88.22198,235.6694,0.64,90.35156,8,10,1416095773,-0.4969482,-0.1583099,1.063965,-53.34063,13.73441,26.0976,301.2655,304.3478,10,0.03733379,-0.1161138,-0.03684164,-1.17776,-2.811445,0.3103134,-0.1367221,-0.1365763,-0.1571424,0.04626264,-0.07985101,0.04025857,172.17.160.76,10.64.29.0,6,unknown,2,2014-11-15 17:55:53.389,8,2014-11-15 17:52:35.410,3
2014-11-15 17:56:13.584,8545,284.8333,40.10473,-88.22198,235.6694,0.64,90.35156,8,10,1416095773,-0.1586304,-0.3307495,0.9650269,-53.64956,13.83765,25.7951,301.0402,304.1225,10,0.2928548,0.09484901,-0.2266928,-1.174174,-2.813578,0.3060879,0.3290688,0.1125022,-0.0694721,-0.1933439,0.1385042,0.1861856,172.17.160.76,10.64.29.0,6,unknown,2,2014-11-15 17:55:53.389,8,2014-11-15 17:52:35.410,3
2014-11-15 17:56:13.618,8546,284.8667,40.10473,-88.22198,235.6694,0.64,90.35156,8,10,1416095773,-0.2414551,-0.2324066,0.861557,-53.75252,13.80324,25.08926,300.2757,303.358,10,0.4095489,-0.2966143,-0.1368423,-1.165158,-2.81234,0.2977524,0.3071348,0.02195216,-0.2428885,0.2178762,-0.04291619,-0.0629866,172.17.160.76,10.64.29.0,6,unknown,2,2014-11-15 17:55:53.389,8,2014-11-15 17:52:35.410,3
2014-11-15 17:56:13.651,8547,284.9,40.10473,-88.22198,235.6694,0.64,90.35156,8,10,1416095773,-0.4986877,-0.1792603,0.9958801,-53.68387,14.07858,24.55145,300.0078,303.0901,10,0.5532653,-0.3227959,-0.07701383,-1.159031,-2.817298,0.2915351,0.4760746,-0.2300971,-0.120655,0.06373993,0.05501626,-0.04632189,172.17.160.76,10.64.29.0,6,unknown,2,2014-11-15 17:55:53.389,8,2014-11-15 17:52:35.410,3
2014-11-15 17:56:13.684,8548,284.9333,40.10473,-88.22198,235.6694,0.64,90.35156,8,10,1416095773,-0.4872131,-0.2272339,0.9102936,-53.44361,14.113,23.17331,298.6665,301.7488,10,0.6614813,0.09790792,0.2029046,-1.148706,-2.828872,0.2629504,0.8796599,-0.1078048,0.05892951,-0.2625882,0.06843288,0.1933729,172.17.160.76,10.64.29.0,6,unknown,2,2014-11-15 17:55:53.389,8,2014-11-15 17:52:35.410,3
2014-11-15 17:56:13.718,8549,284.9667,40.10473,-88.22198,235.6694,0.64,90.35156,8,10,1416095773,-0.4772797,-0.1840363,1.087601,-52.51681,14.62924,21.59351,297.7917,300.874,10,0.8314993,0.3344792,0.4455317,-1.149216,-2.822875,0.231705,0.7455729,0.3063322,0.4394999,-0.1823758,-0.01273333,0.008829878,172.17.160.76,10.64.29.0,6,unknown,2,2014-11-15 17:55:53.389,8,2014-11-15 17:52:35.410,3
2014-11-15 17:56:13.751,8550,285,40.10473,-88.22198,235.6694,0.64,90.35156,8,10,1416095773,-0.2386169,-0.211319,1.003143,-52.41383,15.00782,20.61871,297.5852,300.6675,10,0.9803852,0.3794898,0.2233614,-1.151211,-2.803792,0.1883747,1.087257,0.4676847,0.2989544,-0.07929648,-0.02059266,0.1892475,172.17.160.76,10.64.29.0,6,unknown,2,2014-11-15 17:55:53.389,8,2014-11-15 17:52:35.410,3
2014-11-15 17:56:13.785,8551,285.0334,40.10473,-88.22198,235.6694,0.64,90.35156,8,10,1416095773,-0.210556,-0.04579163,0.9920959,-51.89893,16.07471,18.63556,297.3507,300.433,10,1.115866,0.2109879,0.149786,-1.146792,-2.792251,0.1564,1.075755,0.350021,0.1943525,0.1764503,-0.03352208,0.03338755,172.17.160.76,10.64.29.0,6,unknown,2,2014-11-15 17:55:53.389,8,2014-11-15 17:52:35.410,3
2014-11-15 17:56:13.818,8552,285.0667,40.10473,-88.22198,235.6694,0.64,90.35156,8,10,1416095773,-0.2975464,-0.000289917,1.080063,-52.07056,17.14161,16.98853,297.1403,300.2226,10,1.447232,0.1037472,0.1808864,-1.141404,-2.787865,0.131958,1.380588,0.2009764,0.1754424,0.2245651,-0.01280328,0.03401097,172.17.160.76,10.64.29.0,6,unknown,2,2014-11-15 17:55:53.389,8,2014-11-15 17:52:35.410,3
2014-11-15 17:56:13.851,8553,285.1,40.10473,-88.22198,235.6694,0.64,90.35156,8,10,1416095773,-0.3965912,-0.1130219,0.9327698,-51.86459,17.76109,16.31628,296.4073,299.4896,10,1.541876,-0.2949355,0.1572029,-1.126432,-2.788448,0.07090466,1.568041,-0.1744877,0.1366728,0.04743444,0.07055534,0.1441306,172.17.160.76,10.64.29.0,6,unknown,2,2014-11-15 17:55:53.389,8,2014-11-15 17:52:35.410,3
2014-11-15 17:56:13.885,8554,285.1334,40.10473,-88.22198,235.6694,0.64,90.35156,8,10,1416095773,-0.7889252,0.003814697,1.07193,-50.97212,19.06891,15.03906,296.3766,299.4589,10,1.590516,-0.2588316,0.298388,-1.11814,-2.793358,0.04022899,1.608399,-0.2284213,0.1733894,0.05379206,-0.05858253,0.03568308,172.17.160.76,10.64.29.0,6,unknown,2,2014-11-15 17:55:53.389,8,2014-11-15 17:52:35.410,3
2014-11-15 17:56:13.918,8555,285.1667,40.10473,-88.22198,235.6694,0.64,90.35156,8,10,1416095773,-0.1499939,-0.1951752,0.9494629,-50.04531,21.03063,13.45923,295.4078,298.4901,10,1.499813,0.3056707,0.4715374,-1.116755,-2.793355,-0.04951701,1.569683,0.2477858,0.7598571,-0.2144137,-0.05012239,0.06052032,172.17.160.76,10.64.29.0,6,unknown,2,2014-11-15 17:55:53.389,8,2014-11-15 17:52:35.410,3
2014-11-15 17:56:13.951,8556,285.2,40.10473,-88.22198,235.6694,0.64,90.35156,8,10,1416095773,-0.5619965,0.1637726,1.16571,-49.49611,21.99429,12.85419,295.4805,298.5628,10,1.764649,0.05050578,0.6093177,-1.115626,-2.783336,-0.09971698,1.705083,0.2993224,0.4157012,0.1699753,-0.3179966,0.05131209,172.17.160.76,10.64.29.0,6,unknown,2,2014-11-15 17:55:53.389,8,2014-11-15 17:52:35.410,3
2014-11-15 17:56:13.984,8557,285.2333,40.10473,-88.22198,235.6694,0.64,90.35156,8,10,1416095773,0.07826233,0.2314911,0.8731689,-48.77525,23.61184,11.47607,296.1407,299.223,10,1.478368,0.0850912,0.8101304,-1.112459,-2.779605,-0.1371607,1.83117,0.1170186,0.6255038,-0.1561201,-0.1453675,0.2036236,172.17.160.76,10.64.29.0,6,unknown,2,2014-11-15 17:55:53.389,8,2014-11-15 17:52:35.410,3
2014-11-15 17:56:14.018,8558,285.2667,40.10473,-88.22198,235.6694,0.64,90.35156,8,10,1416095773,-0.5734863,0.2728577,1.027039,-48.12305,24.47224,10.43408,295.4614,298.5437,10,1.870742,-0.2575336,0.3472352,-1.11624,-2.771742,-0.222563,1.673994,0.096428,0.4211178,0.4490107,-0.01647595,-0.05266428,172.17.160.76,10.64.29.0,6,unknown,2,2014-11-15 17:55:53.389,8,2014-11-15 17:52:35.410,3
2014-11-15 17:56:14.051,8559,285.3,40.10473,-88.22198,235.6694,0.64,90.35156,8,10,1416095773,-0.7565155,0.327774,1.042313,-46.50973,26.57162,9.32486,296.1163,299.1986,10,2.1272,-0.5114723,0.7886371,-1.109042,-2.775042,-0.2625417,2.159608,-0.4422903,0.4514913,0.004731159,-0.0188896,0.05629144,172.17.160.76,10.64.29.0,6,unknown,2,2014-11-15 17:55:53.389,8,2014-11-15 17:52:35.410,3
2014-11-15 17:56:14.085,8560,285.3333,40.10473,-88.22198,235.6694,0.64,90.35156,8,10,1416095773,-0.5076141,0.1442413,0.7931519,-44.75911,29.29052,7.812286,296.8333,299.9156,10,1.713826,0.3142157,0.9144805,-1.109485,-2.787899,-0.3523448,1.841888,0.0929151,0.9533343,-0.343279,-0.08209898,0.08381047,172.17.160.76,10.64.29.0,3,unknown,2,2014-11-15 17:55:53.389,8,2014-11-15 17:52:35.410,3
2014-11-15 17:56:14.118,8561,285.3667,40.10474,-88.22198,235.4494,0.21,90.35156,8,10,1416095774,-0.4750366,0.3308716,1.032639,-43.04282,31.21783,6.131622,297.4766,300.5589,10,1.929571,0.6633604,0.8698675,-1.117412,-2.769897,-0.4346921,1.955589,0.6649291,0.8667562,-0.2392922,-0.2756081,-0.01712158,172.17.160.76,10.64.29.0,3,unknown,2,2014-11-15 17:55:53.389,8,2014-11-15 17:52:35.410,3
2014-11-15 17:56:14.151,8562,285.4,40.10474,-88.22198,235.4494,0.21,90.35156,8,10,1416095774,-0.1974487,0.394043,0.8073273,-41.84141,32.35357,4.82074,298.0701,301.1524,10,1.800959,0.8594229,0.7938934,-1.121694,-2.737943,-0.5206432,1.867275,0.9892499,0.8932087,0.01045753,-0.1533373,0.2125028,172.17.160.76,10.64.29.0,6,unknown,2,2014-11-15 17:55:53.389,8,2014-11-15 17:52:35.410,3
2014-11-15 17:56:14.184,8563,285.4333,40.10474,-88.22198,235.4494,0.21,90.35156,8,10,1416095774,-0.5132599,0.5408936,0.8300018,-40.29673,34.52179,1.761963,298.7778,301.8601,10,1.94489,0.8082182,0.7761011,-1.12227,-2.719007,-0.5611784,1.867477,0.925933,0.8100789,0.1497701,-0.1381412,0.03517507,172.17.160.76,10.64.29.0,6,unknown,2,2014-11-15 17:55:53.389,8,2014-11-15 17:52:35.410,3
2014-11-15 17:56:14.218,8564,285.4667,40.10474,-88.22198,235.4494,0.21,90.35156,8,10,1416095774,-0.5548859,0.6012421,0.7554321,-38.51178,36.72441,-2.069946,299.612,302.6943,10,2.09888,0.9448171,1.005524,-1.115755,-2.678499,-0.6480337,2.127488,1.002725,0.8647065,-0.2071986,-0.01514942,0.1761659,172.17.160.76,10.64.29.0,6,unknown,2,2014-11-15 17:55:53.389,8,2014-11-15 17:52:35.410,3
2014-11-15 17:56:14.251,8565,285.5,40.10474,-88.22198,235.4494,0.21,90.35156,8,10,1416095774,-0.4329376,0.6012878,0.7716827,-37.65363,37.24065,-4.120331,299.5327,302.615,10,2.039194,1.251419,1.079543,-1.11144,-2.644798,-0.7192762,2.120549,1.074346,1.062545,-0.1688289,-0.0821955,0.07693825,172.17.160.76,10.64.29.0,6,unknown,2,2014-11-15 17:55:53.389,8,2014-11-15 17:52:35.410,3
2014-11-15 17:56:14.284,8566,285.5334,40.10474,-88.22198,235.4494,0.21,90.35156,8,10,1416095774,-0.3435211,0.6955872,0.7719879,-35.55974,38.23871,-8.658112,203.3632,206.4455,10,2.209015,1.430459,1.019345,-1.107513,-2.603572,-0.7904963,2.149502,1.418837,1.093972,-0.07244156,-0.1094147,0.1675763,172.17.160.76,10.64.29.0,6,unknown,2,2014-11-15 17:55:53.389,8,2014-11-15 17:52:35.410,3
2014-11-15 17:56:14.318,8567,285.5667,40.10474,-88.22198,235.4494,0.21,90.35156,8,10,1416095774,-0.2678986,0.9481201,0.6690521,-33.19124,38.61729,-12.92691,187.2126,190.2949,10,2.359561,1.175367,0.8773225,-1.084353,-2.52826,-0.8891634,2.360967,1.347505,0.9473817,0.09197004,0.06035388,0.2610371,172.17.160.76,10.64.29.0,6,unknown,2,2014-11-15 17:55:53.389,8,2014-11-15 17:52:35.410,3
2014-11-15 17:56:14.351,8568,285.6,40.10474,-88.22198,235.4494,0.21,90.35156,8,10,1416095774,-0.391037,0.8204651,0.1648865,-32.16147,38.68613,-15.34702,187.962,191.0443,10,2.448694,1.111951,0.6452517,-1.043107,-2.459397,-0.9629807,2.517128,1.126829,0.7195391,0.06559863,0.1106974,0.08331765,172.17.160.76,10.64.29.0,6,unknown,2,2014-11-15 17:55:53.389,8,2014-11-15 17:52:35.410,3
2014-11-15 17:56:14.384,8569,285.6334,40.10474,-88.22198,235.4494,0.21,90.35156,8,10,1416095774,-0.1838531,1.022491,0.1624908,-29.10647,38.44521,-19.41422,185.3395,188.4218,10,1.974143,1.010905,1.025446,-0.9617239,-2.341477,-1.054014,2.212823,1.22929,0.902719,0.02224544,-0.03123285,-0.2352132,172.17.160.76,10.64.29.0,6,unknown,2,2014-11-15 17:55:53.389,8,2014-11-15 17:52:35.410,3
2014-11-15 17:56:14.418,8570,285.6667,40.10474,-88.22198,235.4494,0.21,90.35156,8,10,1416095774,0.0007476807,0.9031677,-0.04888916,-26.0858,37.75688,-22.57382,184.4548,187.5371,10,1.451999,0.244622,1.110407,-0.919756,-2.278419,-1.115959,1.603898,0.5184168,1.144335,0.1676115,0.1753218,-0.08015455,172.17.160.76,10.64.29.0,6,unknown,2,2014-11-15 17:55:53.389,8,2014-11-15 17:52:35.410,3
2014-11-15 17:56:14.451,8571,285.7,40.10474,-88.22198,235.4494,0.21,90.35156,8,10,1416095774,0.2474518,0.5655975,-0.2415466,-24.26652,37.65364,-23.54855,183.5576,186.6399,10,0.5994166,-0.3054907,0.5311337,-0.882125,-2.239706,-1.180957,0.9072454,-0.2278366,0.773618,0.4124286,-0.1426064,-0.5220969,172.17.160.76,10.64.29.0,6,unknown,2,2014-11-15 17:55:53.389,8,2014-11-15 17:52:35.410,3
2014-11-15 17:56:14.484,8572,285.7333,40.10474,-88.22198,235.4494,0.21,90.35156,8,10,1416095774,-0.219696,0.3053741,0.007659912,-22.24128,37.68806,-24.52335,180.5437,183.626,10,0.2811196,-0.2229034,0.04872466,-0.8717972,-2.234561,-1.196504,0.5120613,-0.186405,0.3241861,0.5354381,-0.365169,-0.4667966,172.17.160.76,10.64.29.0,6,unknown,2,2014-11-15 17:55:53.389,8,2014-11-15 17:52:35.410,3
2014-11-15 17:56:14.518,8573,285.7667,40.10474,-88.22198,235.4494,0.21,90.35156,8,10,1416095774,-0.3153839,0.6967621,0.1794891,-21.17717,37.37833,-24.82584,179.9526,183.0349,10,-0.1301604,-0.427652,-0.07500686,-0.8542332,-2.227225,-1.206269,0.01274569,-0.4081995,0.04784089,0.09786195,-0.5162779,-0.2035051,172.17.160.76,10.64.29.0,6,unknown,2,2014-11-15 17:55:53.389,8,2014-11-15 17:52:35.410,3
2014-11-15 17:56:14.551,8574,285.8,40.10474,-88.22198,235.4494,0.21,90.35156,8,10,1416095774,-0.3890686,0.5902863,0.06871033,-20.52498,37.55038,-24.99393,179.5713,182.6536,10,-0.09093497,0.07323693,0.1249196,-0.8555922,-2.239091,-1.204554,0.007992615,-0.1552022,-0.07924846,-0.1638582,-0.2190189,-5.45147e-05,172.17.160.76,10.64.29.0,6,unknown,2,2014-11-15 17:55:53.389,8,2014-11-15 17:52:35.410,3
2014-11-15 17:56:14.584,8575,285.8333,40.10474,-88.22198,235.4494,0.21,90.35156,8,10,1416095774,-0.3047791,0.8978577,0.3127899,-20.35335,37.37831,-25.0947,179.409,182.4913,10,-0.2394153,0.3673485,-0.05448908,-0.8620867,-2.242509,-1.205772,-0.180052,0.1376337,0.1342326,-0.1096461,-0.3438287,-0.1534435,172.17.160.76,10.64.29.0,6,unknown,2,2014-11-15 17:55:53.389,8,2014-11-15 17:52:35.410,3
2014-11-15 17:56:14.618,8576,285.8667,40.10474,-88.22198,235.4494,0.21,90.35156,8,10,1416095774,-0.04597473,0.8066864,0.0763092,-20.25038,37.27507,-24.79221,179.3166,182.3989,10,-0.3659085,0.1972199,-0.219441,-0.8755662,-2.236431,-1.200268,-0.1596714,0.7308188,-0.1100455,0.04873815,-0.01622744,0.07142137,172.17.160.76,10.64.29.0,6,unknown,2,2014-11-15 17:55:53.389,8,2014-11-15 17:52:35.410,3
2014-11-15 17:56:14.651,8577,285.9,40.10474,-88.22198,235.4494,0.21,90.35156,8,10,1416095774,-0.2937012,0.9531403,0.3278351,-20.2847,37.37831,-24.22073,181.4064,184.4887,10,-0.497413,-0.4213643,-0.2508661,-0.8839774,-2.234482,-1.190641,-0.3816565,-0.1297219,-0.2474926,0.2311408,-0.1097134,-0.2231225,172.17.160.76,10.64.29.0,2,unknown,2,2014-11-15 17:55:53.389,8,2014-11-15 17:52:35.410,3
2014-11-15 17:56:14.684,8578,285.9333,40.10474,-88.22198,235.4494,0.21,90.35156,8,10,1416095774,-0.2892914,0.894104,0.2854156,-20.04442,37.20623,-23.58212,182.7851,185.8674,10,-0.2652013,-0.2527984,-0.1457612,-0.8978115,-2.256432,-1.178849,-0.2839562,-0.2267716,-0.1475289,0.00196468,0.02897337,0.08597299,172.17.160.76,10.64.29.0,2,unknown,2,2014-11-15 17:55:53.389,8,2014-11-15 17:52:35.410,3
2014-11-15 17:56:14.718,8579,285.9667,40.10474,-88.22198,235.4494,0.21,90.35156,8,10,1416095774,-0.2475891,0.7835388,0.1913757,-20.45633,37.41273,-23.3804,182.5633,185.6456,10,-0.6108887,-0.9864919,-0.2374948,-0.907256,-2.282055,-1.167448,-0.4036443,-0.8232312,-0.2032958,0.02907023,-0.05819482,-0.1074616,172.17.160.76,10.64.29.0,2,unknown,2,2014-11-15 17:55:53.389,8,2014-11-15 17:52:35.410,3
2014-11-15 17:56:14.751,8580,286,40.10474,-88.22198,235.4494,0.21,90.35156,8,10,1416095774,-0.3276215,0.9330292,0.3197327,-21.76072,37.13742,-22.6409,180.9785,184.0608,10,-0.7394408,-0.4419276,-0.5982341,-0.9271531,-2.325357,-1.150113,-0.6377312,-0.683706,-0.3152632,0.04994842,-0.1292713,-0.08835469,172.17.160.76,10.64.29.0,2,unknown,2,2014-11-15 17:55:53.389,8,2014-11-15 17:52:35.410,3
2014-11-15 17:56:14.784,8581,286.0334,40.10474,-88.22198,235.4494,0.21,90.35156,8,10,1416095774,-0.2140503,0.7249298,0.07272339,-23.40835,36.93092,-21.29642,179.4812,182.5635,10,-0.9976295,-0.4796209,-0.5401458,-0.9351054,-2.345394,-1.124611,-0.7003732,-0.3260811,-0.6623731,-0.01920795,0.03092922,0.01791023,172.17.160.76,10.64.29.0,2,unknown,2,2014-11-15 17:55:53.389,8,2014-11-15 17:52:35.410,3
2014-11-15 17:56:14.818,8582,286.0667,40.10474,-88.22198,235.4494,0.21,90.35156,8,10,1416095774,-0.148407,0.7418518,0.404541,-23.92324,36.96532,-20.72501,180.0011,183.0835,10,-1.112179,-0.232976,-0.6711033,-0.9611446,-2.384519,-1.082917,-1.114749,-0.3985394,-0.4329845,0.2086424,-0.1883062,-0.1941527,172.17.160.76,10.64.29.0,2,unknown,2,2014-11-15 17:55:53.389,8,2014-11-15 17:52:35.410,3
2014-11-15 17:56:14.851,8583,286.1,40.10474,-88.22198,235.4494,0.21,90.35156,8,10,1416095774,-0.4355621,0.7345428,0.3392487,-25.056,36.58675,-19.61581,180.968,184.0503,10,-1.056591,-0.2983257,-0.7385289,-0.9775844,-2.40525,-1.04724,-0.986768,-0.1352538,-0.7377841,0.05343344,-0.1069369,0.1008146,172.17.160.76,10.64.29.0,2,unknown,2,2014-11-15 17:55:53.389,8,2014-11-15 17:52:35.410,3
2014-11-15 17:56:14.883,8584,286.1334,40.10474,-88.22198,235.4494,0.21,90.35156,8,10,1416095774,-0.1652985,0.6275635,0.3794098,-26.73798,36.96531,-18.3049,182.8025,185.8848,10,-1.28341,-0.5250662,-0.5255157,-0.9887616,-2.424901,-1.011316,-1.075043,-0.479062,-0.5407671,-0.08691867,-0.1129883,-0.06092475,172.17.160.76,10.64.29.0,2,unknown,2,2014-11-15 17:55:53.389,8,2014-11-15 17:52:35.410,3
2014-11-15 17:56:14.918,8585,286.1667,40.10474,-88.22198,235.4494,0.21,90.35156,8,10,1416095774,-0.5775757,0.743042,0.5222473,-27.49314,36.96531,-17.49814,183.4946,186.5769,10,-1.417615,-0.7754773,-0.6282341,-1.015193,-2.465819,-0.9598939,-1.290142,-0.4880869,-0.6238663,0.136685,-0.1804284,-0.02470498,172.17.160.76,10.64.29.0,2,unknown,2,2014-11-15 17:55:53.389,8,2014-11-15 17:52:35.410,3
2014-11-15 17:56:14.951,8586,286.2,40.10474,-88.22198,235.4494,0.21,90.35156,8,10,1416095774,-0.4260101,0.7214661,0.4361572,-29.55269,37.10297,-15.54874,184.3847,187.467,10,-1.413707,-0.8874361,-0.5386124,-1.032057,-2.499538,-0.9171836,-1.323654,-0.797775,-0.5489451,-0.2134448,-0.05085024,0.03527316,172.17.160.76,10.64.29.0,2,unknown,2,2014-11-15 17:55:53.389,8,2014-11-15 17:52:35.410,3
2014-11-15 17:56:14.984,8587,286.2333,40.10474,-88.22198,235.4494,0.21,90.35156,8,10,1416095774,-0.5352173,0.7796173,0.6555176,-30.71978,36.41466,-13.26303,185.2682,188.3506,10,-1.698741,-0.7271522,-0.7192759,-1.050124,-2.537132,-0.8720818,-1.584457,-0.7187567,-0.6547621,-0.06044854,-0.04420364,-0.09310135,172.17.160.76,10.64.29.0,2,unknown,2,2014-11-15 17:55:53.389,8,2014-11-15 17:52:35.410,3
2014-11-15 17:56:15.018,8588,286.2667,40.10474,-88.22198,235.4494,0.21,90.35156,8,10,1416095774,-0.3468781,0.7007904,0.6484222,-32.0585,36.44908,-11.88492,185.5215,188.6038,10,-1.521972,-0.03582271,-0.4785253,-1.070156,-2.56882,-0.806119,-1.461869,-0.07471438,-0.4883616,-0.2026156,0.0280738,0.08264578,172.17.160.76,10.64.29.0,2,unknown,2,2014-11-15 17:55:53.389,8,2014-11-15 17:52:35.410,3
2014-11-15 17:56:15.051,8589,286.3,40.10474,-88.22198,235.4494,0.21,90.35156,8,10,1416095774,-0.2442474,0.7121735,0.5513763,-33.3629,35.82959,-10.00253,188.1781,191.2604,10,-1.702264,-0.1035544,-1.159678,-1.08481,-2.578162,-0.7399596,-1.604182,0.004380961,-1.000108,0.1545702,0.06055943,0.05222988,172.17.160.76,10.64.29.0,2,unknown,2,2014-11-15 17:55:53.389,8,2014-11-15 17:52:35.410,3
2014-11-15 17:56:15.084,8590,286.3333,40.10474,-88.22198,235.4494,0.21,90.35156,8,10,1416095774,-0.3766785,0.6243591,0.8389587,-34.25537,35.55427,-9.397552,190.0672,193.1495,10,-1.628943,-0.1040625,-1.081406,-1.082344,-2.577117,-0.7002735,-1.620781,-0.02443684,-1.15942,0.1648281,0.06774663,-0.09466641,172.17.160.76,10.64.29.0,2,unknown,2,2014-11-15 17:55:53.389,8,2014-11-15 17:52:35.410,3
2014-11-15 17:56:15.118,8591,286.3667,40.10474,-88.222,235.3976,0.41,113.5547,8,10,1416095775,-0.3553925,0.5253906,0.5504913,-36.00599,34.69386,-8.624481,283.0105,286.0928,10,-1.804926,-0.8218382,-0.8828451,-1.081027,-2.583163,-0.630127,-1.434392,-0.47815,-0.8652924,0.02703618,1.309958e-06,0.1107903,172.17.160.76,10.64.29.0,2,unknown,2,2014-11-15 17:55:53.389,8,2014-11-15 17:52:35.410,3
2014-11-15 17:56:15.151,8592,286.4,40.10474,-88.222,235.3976,0.41,113.5547,8,10,1416095775,-0.388031,0.443924,0.9643402,-38.27151,34.00552,-6.607758,296.4357,299.518,10,-1.686975,-0.7336455,-0.7342148,-1.086148,-2.607852,-0.5734258,-1.815403,-0.8697326,-0.8224071,0.08834495,-0.07061976,-0.2405088,172.17.160.76,10.64.29.0,2,unknown,2,2014-11-15 17:55:53.389,8,2014-11-15 17:52:35.410,3
2014-11-15 17:56:15.184,8593,286.4333,40.10474,-88.222,235.3976,0.41,113.5547,8,10,1416095775,-0.4118652,0.3368988,0.6333618,-40.33107,32.28471,-3.51535,296.1841,299.2664,10,-1.656977,-0.988469,-0.8481862,-1.09243,-2.63303,-0.5191344,-1.503141,-0.6460877,-0.7353572,0.03473901,-0.05220482,0.2059724,172.17.160.76,10.64.29.0,2,unknown,2,2014-11-15 17:55:53.389,8,2014-11-15 17:52:35.410,3
2014-11-15 17:56:15.217,8594,286.4667,40.10474,-88.222,235.3976,0.41,113.5547,8,10,1416095775,-0.4710388,0.278717,0.7131805,-41.32653,31.56197,-2.002777,295.9151,298.9974,10,-1.876338,-0.5823018,-0.8261192,-1.094278,-2.667143,-0.4462714,-1.773678,-0.726407,-0.8356081,0.0349547,-0.1425426,-0.2409319,172.17.160.76,10.64.29.0,2,unknown,2,2014-11-15 17:55:53.389,8,2014-11-15 17:52:35.410,3
2014-11-15 17:56:15.250,8595,286.5,40.10474,-88.222,235.3976,0.41,113.5547,8,10,1416095775,-0.7324677,0.3398743,0.8972473,-42.80254,29.53143,0.65271,293.3594,296.4417,15,-1.762178,-0.5070019,-0.8378265,-1.096705,-2.684103,-0.387628,-1.737245,-0.4224176,-0.8203445,-0.09082904,-0.07040681,0.1412455,172.17.160.76,10.64.29.0,2,unknown,2,2014-11-15 17:55:53.389,8,2014-11-15 17:52:35.410,3
2014-11-15 17:56:15.284,8596,286.5334,40.10474,-88.222,235.3976,0.41,113.5547,8,10,1416095775,-0.5579071,0.2942505,0.7634735,-43.90097,27.67295,2.938385,292.8771,295.9594,15,-1.984567,0.002542254,-0.4925133,-1.098276,-2.697721,-0.3315789,-1.744091,-0.4191631,-0.6706328,-0.3264206,0.01433796,0.04334339,172.17.160.76,10.64.29.0,2,unknown,2,2014-11-15 17:55:53.389,8,2014-11-15 17:52:35.410,3
2014-11-15 17:56:15.318,8597,286.5667,40.10474,-88.222,235.3976,0.41,113.5547,8,10,1416095775,-0.5272675,0.1800385,0.9638977,-44.62181,26.81255,4.182068,292.7437,295.826,15,-1.791347,0.112509,-0.5521007,-1.11269,-2.699704,-0.2547829,-1.85816,0.2632991,-0.4967749,-0.0723641,0.06768209,-0.082986,172.17.160.76,10.64.29.0,2,unknown,2,2014-11-15 17:55:53.389,8,2014-11-15 17:52:35.410,3
2014-11-15 17:56:15.351,8598,286.6,40.10474,-88.222,235.3976,0.41,113.5547,8,10,1416095775,-0.3360138,0.07453918,1.006866,-46.30379,25.12614,6.097961,292.7698,295.8521,15,-1.456538,0.2761261,-0.5333862,-1.119502,-2.698322,-0.204264,-1.427724,-0.001368403,-0.4817353,-0.107288,-0.02280808,0.07932408,172.17.160.76,10.64.29.0,2,unknown,2,2014-11-15 17:55:53.389,8,2014-11-15 17:52:35.410,3
2014-11-15 17:56:15.384,8599,286.6334,40.10474,-88.222,235.3976,0.41,113.5547,8,10,1416095775,-0.2228851,0.06765747,0.8418427,-48.26036,23.78391,7.207153,292.1001,295.1824,15,-1.669459,-0.2211361,-1.109469,-1.122912,-2.686354,-0.1434417,-1.477581,0.4126758,-0.8137472,0.2483935,0.02736829,0.1171105,172.17.160.76,10.64.29.0,2,unknown,2,2014-11-15 17:55:53.389,8,2014-11-15 17:52:35.410,3
2014-11-15 17:56:15.418,8600,286.6667,40.10474,-88.222,235.3976,0.41,113.5547,8,10,1416095775,-0.4612732,0.01116943,1.043579,-49.04986,22.92351,7.308014,292.5596,295.6419,15,-1.291763,-0.3376041,-0.8896471,-1.115713,-2.686898,-0.08786349,-1.485976,-0.2860326,-1.036061,0.1371859,-0.07598595,0.05282443,172.17.160.76,10.64.29.0,2,unknown,2,2014-11-15 17:55:53.389,8,2014-11-15 17:52:35.410,3
2014-11-15 17:56:15.451,8601,286.7,40.10474,-88.222,235.3976,0.41,113.5547,8,10,1416095775,-0.2965088,0.06008911,0.8237915,-50.18261,20.5488,8.820587,292.2299,295.3123,15,-1.394232,-0.3963231,-1.215448,-1.1077,-2.694665,-0.04169909,-1.188865,-0.2396029,-0.9191042,-0.05159204,0.01452638,0.2012845,172.17.160.76,10.64.29.0,2,unknown,2,2014-11-15 17:55:53.389,8,2014-11-15 17:52:35.410,3
2014-11-15 17:56:15.484,8602,286.7333,40.10474,-88.222,235.3976,0.41,113.5547,8,10,1416095775,-0.494278,-0.265564,0.9461823,-51.00645,19.03448,9.828979,291.6022,294.6845,15,-1.265944,-0.6921747,-0.7037286,-1.09379,-2.704316,0.008188357,-1.466437,-0.4966457,-1.206019,0.1269505,0.06827737,-0.08208661,172.17.160.76,10.64.29.0,2,unknown,2,2014-11-15 17:55:53.389,8,2014-11-15 17:52:35.410,3
2014-11-15 17:56:15.518,8603,286.7667,40.10474,-88.222,235.3976,0.41,113.5547,8,10,1416095775,-0.5328827,-0.1204834,1.018448,-51.76161,16.41885,12.04745,290.7995,293.8818,15,-1.067678,-0.4782355,-0.64284,-1.086591,-2.726754,0.06238811,-0.9236158,-0.4282009,-0.5485107,-0.1777745,-0.1474607,0.1828209,172.17.160.76,10.64.29.0,3,unknown,2,2014-11-15 17:55:53.389,8,2014-11-15 17:52:35.410,3
2014-11-15 17:56:15.551,8604,286.8,40.10474,-88.222,235.3976,0.41,113.5547,8,10,1416095775,-0.405365,-0.3216095,0.777359,-52.10488,14.28505,13.52646,290.2586,293.3409,15,-1.487896,-0.3338315,-0.5417882,-1.080794,-2.741217,0.1152906,-1.403996,-0.2725018,-0.6446099,-0.03666617,-0.08322212,-0.02515246,172.17.160.76,10.64.29.0,3,unknown,2,2014-11-15 17:55:53.389,8,2014-11-15 17:52:35.410,3
2014-11-15 17:56:15.584,8605,286.8333,40.10474,-88.222,235.3976,0.41,113.5547,8,10,1416095775,-0.6222992,-0.1035004,1.10463,-52.75706,12.66748,15.10626,290.1241,293.2064,15,-1.077718,-0.1630616,-0.415047,-1.083395,-2.747523,0.1564985,-1.120109,-0.1302399,-0.3604467,-0.04405212,-0.1225667,0.01688518,172.17.160.76,10.64.29.0,3,unknown,2,2014-11-15 17:55:53.389,8,2014-11-15 17:52:35.410,3
2014-11-15 17:56:15.618,8606,286.8667,40.10474,-88.222,235.3976,0.41,113.5547,8,10,1416095775,-0.266098,-0.3629761,0.6814117,-53.03167,11.635,15.30798,290.0643,293.1466,15,-1.170087,-0.1235073,-0.5301943,-1.082755,-2.751046,0.1894018,-1.025873,-0.117504,-0.4976638,-0.2484133,0.08477101,0.1964647,172.17.160.76,10.64.29.0,3,unknown,2,2014-11-15 17:55:53.389,8,2014-11-15 17:52:35.410,3
2014-11-15 17:56:15.651,8607,286.9,40.10474,-88.222,235.3976,0.41,113.5547,8,10,1416095775,-0.2805023,-0.3371582,0.936615,-53.99279,10.18952,16.18195,290.0064,293.0887,15,-0.9479807,-0.3582058,-0.3581789,-1.082249,-2.753428,0.2278731,-1.260549,-0.1308734,-0.4533347,0.1026077,-0.13707,-0.2202659,172.17.160.76,10.64.29.0,3,unknown,2,2014-11-15 17:55:53.389,8,2014-11-15 17:52:35.410,3
2014-11-15 17:56:15.684,8608,286.9333,40.10474,-88.222,235.3976,0.41,113.5547,8,10,1416095775,-0.1986847,-0.151413,1.041229,-54.23307,8.640793,17.22394,290.4889,293.5712,15,-0.897239,-0.5461275,-0.6172987,-1.082301,-2.766113,0.2671227,-0.7865249,-0.4495559,-0.4122058,-0.1136335,0.06942295,0.2316302,172.17.160.76,10.64.29.0,3,unknown,2,2014-11-15 17:55:53.389,8,2014-11-15 17:52:35.410,3
2014-11-15 17:56:15.718,8609,286.9667,40.10474,-88.222,235.3976,0.41,113.5547,8,10,1416095775,-0.2726593,-0.3462982,0.7940979,-53.99279,8.262215,17.86258,290.4896,293.5719,15,-0.9615039,-0.7422933,-0.5671399,-1.075307,-2.782184,0.2972195,-0.9798585,-0.4639603,-0.6440224,0.2011526,0.07850725,-0.01269085,172.17.160.76,10.64.29.0,6,unknown,2,2014-11-15 17:55:53.389,8,2014-11-15 17:52:35.410,3
2014-11-15 17:56:15.751,8610,287,40.10474,-88.222,235.3976,0.41,113.5547,8,10,1416095775,-0.7224274,-0.1186371,1.155624,-54.16442,7.195312,19.50958,290.523,293.6053,15,-0.3852175,-0.4476177,-0.3437734,-1.068466,-2.80262,0.3287159,-0.7566376,-0.6796207,-0.4835873,-0.09194731,-0.01848063,-0.05263531,172.17.160.76,10.64.29.0,6,unknown,2,2014-11-15 17:55:53.389,8,2014-11-15 17:52:35.410,3
2014-11-15 17:56:15.784,8611,287.0334,40.10474,-88.222,235.3976,0.41,113.5547,8,10,1416095775,-0.3999329,-0.4443054,0.8458252,-54.19874,6.40374,20.75327,290.445,293.5273,15,-0.4642364,-0.250302,-0.2500895,-1.061948,-2.817557,0.3433794,-0.170578,-0.2235788,-0.2785144,-0.4226201,0.2180341,0.2630057,172.17.160.76,10.64.29.0,6,unknown,2,2014-11-15 17:55:53.389,8,2014-11-15 17:52:35.410,3
2014-11-15 17:56:15.818,8612,287.0667,40.10474,-88.222,235.3976,0.41,113.5547,8,10,1416095775,-0.7216187,-0.2079773,1.15686,-54.26739,5.990746,21.29108,290.2517,293.334,15,-0.1784385,-0.0670307,0.1181397,-1.060424,-2.826242,0.361465,-0.2396871,-0.0659128,0.05375691,-0.2664562,-0.09366643,0.04466027,172.17.160.76,10.64.29.0,6,unknown,2,2014-11-15 17:55:53.389,8,2014-11-15 17:52:35.410,3
2014-11-15 17:56:15.851,8613,287.1,40.10474,-88.222,235.3976,0.41,113.5547,8,10,1416095775,-0.3752441,-0.1369934,1.135818,-54.33604,5.853088,21.56,290.452,293.5343,15,0.09519869,0.0837937,0.2686397,-1.063987,-2.824605,0.36179,0.05523274,0.07222137,0.2136637,-0.4300916,0.1459716,0.2681916,172.17.160.76,10.64.29.0,6,unknown,2,2014-11-15 17:55:53.389,8,2014-11-15 17:52:35.410,3
2014-11-15 17:56:15.885,8614,287.1334,40.10474,-88.222,235.3976,0.41,113.5547,8,10,1416095775,-0.1358643,-0.4237823,0.8591766,-54.26739,6.128418,21.49277,290.7312,293.8135,15,0.1292552,-0.07364013,0.247515,-1.073871,-2.815004,0.3527453,0.1222536,0.1023476,0.2677068,0.1175128,0.06721609,0.1130522,172.17.160.76,10.64.29.0,6,unknown,2,2014-11-15 17:55:53.389,8,2014-11-15 17:52:35.410,3
2014-11-15 17:56:15.918,8615,287.1667,40.10474,-88.222,235.3976,0.41,113.5547,8,10,1416095775,-0.3588715,-0.02659607,1.204147,-54.81661,6.885567,20.95493,291.119,294.2014,15,0.5394403,-0.05193004,0.3341964,-1.08001,-2.813681,0.3418794,0.431092,-0.01624338,0.3423525,0.05164242,-0.008369648,0.0237073,172.17.160.76,10.64.29.0,6,unknown,2,2014-11-15 17:55:53.389,8,2014-11-15 17:52:35.410,3
2014-11-15 17:56:15.951,8616,287.2,40.10474,-88.222,235.3976,0.41,113.5547,8,10,1416095775,-0.1466827,-0.4645233,0.7110901,-54.67931,7.642715,20.41718,291.1453,294.2276,15,0.6062529,-0.2017339,0.05823348,-1.081239,-2.814422,0.312346,0.7152947,-0.11484,0.1072429,0.01664634,0.1870069,0.1948252,172.17.160.76,10.64.29.0,6,unknown,2,2014-11-15 17:55:53.389,8,2014-11-15 17:52:35.410,3
2014-11-15 17:56:15.984,8617,287.2333,40.10474,-88.222,235.3976,0.41,113.5547,8,10,1416095775,-0.578537,-0.06544495,1.177246,-53.8898,8.158951,20.24911,290.894,293.9763,15,1.008022,-0.03391642,0.4981278,-1.078593,-2.819557,0.2897766,0.8511447,-0.1368158,0.301931,-0.04330056,-0.04600323,-0.07188587,172.17.160.76,10.64.29.0,6,unknown,2,2014-11-15 17:55:53.389,8,2014-11-15 17:52:35.410,3
2014-11-15 17:56:16.018,8618,287.2667,40.10474,-88.222,235.3976,0.41,113.5547,8,10,1416095775,-0.5024872,-0.2545929,0.9706879,-53.6152,8.227776,20.11465,290.5253,293.6076,15,0.9409659,-0.08098886,0.4514258,-1.080856,-2.819193,0.2679666,1.074505,0.03256098,0.5142829,-0.273001,0.1993262,0.2626183,172.17.160.76,10.64.29.0,6,unknown,2,2014-11-15 17:55:53.389,8,2014-11-15 17:52:35.410,3
2014-11-15 17:56:16.051,8619,287.3,40.10474,-88.222,235.3976,0.41,113.5547,8,10,1416095775,-0.4290009,-0.2000122,1.044937,-53.10031,9.294685,19.54321,290.2755,293.3578,15,0.9927596,0.232021,0.6779143,-1.085736,-2.815759,0.22485,0.8873621,0.2177465,0.4013187,-0.07571574,-0.1607221,-0.07794007,172.17.160.76,10.64.29.0,6,unknown,2,2014-11-15 17:55:53.389,8,2014-11-15 17:52:35.410,3
2014-11-15 17:56:16.084,8620,287.3333,40.10474,-88.222,235.3976,0.41,113.5547,8,10,1416095775,-0.4446716,-0.09359741,1.12851,-52.99731,11.46291,18.36673,290.7181,293.8004,15,1.163936,0.2628945,0.8377197,-1.094212,-2.805245,0.1891663,1.180331,0.3027351,0.8411841,-0.1048468,-0.01197209,0.1178098,172.17.160.76,10.64.29.0,6,unknown,2,2014-11-15 17:55:53.389,8,2014-11-15 17:52:35.410,3
2014-11-15 17:56:16.118,8621,287.3667,40.10474,-88.222,235.6419,0,157.8516,8,10,1416095776,-0.1094513,-0.2083588,0.8882904,-52.79136,12.49541,17.69446,291.011,294.0934,15,1.062589,0.2838781,0.5133962,-1.108092,-2.78974,0.1324625,1.188461,0.3404492,0.6290558,-0.003870828,-0.01250159,0.1131738,172.17.160.76,172.17.160,6,unknown,2,2014-11-15 17:55:53.389,8,2014-11-15 17:52:35.410,3
2014-11-15 17:56:16.151,8622,287.4,40.10474,-88.222,235.6419,0,157.8516,8,10,1416095776,-0.2622833,-0.1039886,1.021774,-52.00184,14.38831,15.98019,291.4057,294.488,15,1.342705,0.1183077,0.5560576,-1.110719,-2.779646,0.09368728,1.295239,0.2707672,0.5539851,0.2729529,-0.08986036,0.01544053,172.17.160.76,10.64.29.0,6,unknown,2,2014-11-15 17:55:53.389,8,2014-11-15 17:52:35.410,3
2014-11-15 17:56:16.185,8623,287.4333,40.10474,-88.222,235.6419,0,157.8516,8,10,1416095776,-0.3391113,-0.06494141,0.8803253,-51.17801,16.10911,14.23227,291.545,294.6273,15,1.375713,-0.03704031,0.5296404,-1.110577,-2.774303,0.03037069,1.527548,0.05476676,0.5286251,0.07451292,-0.06812946,0.08403308,172.17.160.76,10.64.29.0,6,unknown,2,2014-11-15 17:55:53.389,8,2014-11-15 17:52:35.410,3
2014-11-15 17:56:16.217,8624,287.4667,40.10474,-88.222,235.6419,0,157.8516,8,10,1416095776,-0.3379669,-0.01878357,1.024185,-50.42286,17.27927,13.96335,291.8831,294.9655,15,1.348588,-0.2274723,0.6380718,-1.112034,-2.775862,-0.01468347,1.337237,-0.1769058,0.6533725,0.01848213,-0.07962435,-0.05343661,172.17.160.76,10.64.29.0,6,unknown,2,2014-11-15 17:55:53.389,8,2014-11-15 17:52:35.410,3
2014-11-15 17:56:16.251,8625,287.5,40.10474,-88.222,235.6419,0,157.8516,8,10,1416095776,-0.3316498,-0.09062195,0.9562378,-49.35875,19.79165,13.25742,292.6292,295.7115,15,1.507752,-0.4024169,0.1334121,-1.112249,-2.781431,-0.06283129,1.63199,-0.3071699,0.4467167,0.01376335,-0.08157353,0.09019201,172.17.160.76,10.64.29.0,6,unknown,2,2014-11-15 17:55:53.389,8,2014-11-15 17:52:35.410,3
2014-11-15 17:56:16.284,8626,287.5334,40.10474,-88.222,235.6419,0,157.8516,8,10,1416095776,-0.6361694,0.02372742,0.8742523,-48.77521,20.78973,13.42548,292.9197,296.002,15,1.360582,-0.2978809,0.1780345,-1.101588,-2.790662,-0.1098862,1.488043,-0.2884025,0.1076802,0.01004903,-0.2002872,0.02284856,172.17.160.76,10.64.29.0,6,unknown,2,2014-11-15 17:55:53.389,8,2014-11-15 17:52:35.410,3
2014-11-15 17:56:16.318,8627,287.5667,40.10474,-88.222,235.6419,0,157.8516,8,10,1416095776,-0.634552,0.1623688,0.9871826,-47.81408,22.64819,12.34991,292.8734,295.9557,15,1.454376,0.3360931,0.6990249,-1.096511,-2.795012,-0.1534081,1.437796,-0.02559632,0.5752428,-0.4030747,-0.04762823,-0.008198769,172.17.160.76,10.64.29.0,6,unknown,2,2014-11-15 17:55:53.389,8,2014-11-15 17:52:35.410,3
2014-11-15 17:56:16.351,8628,287.6,40.10474,-88.222,235.6419,0,157.8516,8,10,1416095776,-0.3866577,0.2435303,0.9141693,-46.85297,24.50666,11.13986,293.1766,296.2589,15,1.429108,0.6344651,0.6699078,-1.101413,-2.780928,-0.2194348,1.501994,0.546538,0.6427655,-0.2402067,-0.06898107,0.06646459,172.17.160.76,10.64.29.0,6,unknown,2,2014-11-15 17:55:53.389,8,2014-11-15 17:52:35.410,3
2014-11-15 17:56:16.384,8629,287.6334,40.10474,-88.222,235.6419,0,157.8516,8,10,1416095776,0.09002686,0.2350006,0.9460754,-45.99481,26.81254,8.686127,293.8978,296.9801,15,1.451104,0.4379451,0.3959897,-1.104402,-2.746316,-0.2993899,1.450221,0.6986882,0.5259244,0.3809805,-0.04193133,0.09918113,172.17.160.76,10.64.29.0,6,unknown,2,2014-11-15 17:55:53.389,8,2014-11-15 17:52:35.410,3
2014-11-15 17:56:16.418,8630,287.6667,40.10474,-88.222,235.6419,0,157.8516,8,10,1416095776,-0.4680023,0.2555542,0.6993713,-45.54857,27.19112,7.644104,293.7615,296.8438,15,1.54015,-0.4274246,0.3422711,-1.099324,-2.736303,-0.3308174,1.606089,0.2030146,0.3252949,0.4629325,-0.08981561,0.07691734,172.17.160.76,10.64.29.0,6,unknown,2,2014-11-15 17:55:53.389,8,2014-11-15 17:52:35.410,3
2014-11-15 17:56:16.452,8631,287.7,40.10474,-88.222,235.6419,0,157.8516,8,10,1416095776,-0.3718262,0.3032379,0.7697754,-45.068,28.6366,5.89621,293.5425,296.6248,15,1.297305,-0.3559816,0.6428946,-1.08922,-2.744923,-0.3953125,1.43956,-0.407955,0.5976248,-0.2202605,-0.05538473,-0.07971779,172.17.160.76,10.64.29.0,6,unknown,2,2014-11-15 17:55:53.389,8,2014-11-15 17:52:35.410,3
2014-11-15 17:56:16.484,8632,287.7333,40.10474,-88.222,235.6419,0,157.8516,8,10,1416095776,-0.6921997,0.4059296,0.7336578,-44.14119,30.39182,4.921387,293.6273,296.7097,15,1.465688,-0.3176043,0.6700646,-1.091354,-2.752267,-0.4400101,1.387487,-0.1336743,0.6130634,0.0947983,-0.178863,-0.001973192,172.17.160.76,10.64.29.0,6,unknown,2,2014-11-15 17:55:53.389,8,2014-11-15 17:52:35.410,3
2014-11-15 17:56:16.518,8633,287.7667,40.10474,-88.222,235.6419,0,157.8516,8,10,1416095776,-0.6600647,0.4763794,0.8106232,-43.31739,31.69963,4.719757,294.2597,297.342,15,1.260475,-0.2799835,0.855729,-1.095565,-2.764694,-0.4897467,1.391952,-0.4445082,0.8205217,-0.3674234,-0.06447281,-0.08685539,172.17.160.76,10.64.29.0,6,unknown,2,2014-11-15 17:55:53.389,8,2014-11-15 17:52:35.410,3
2014-11-15 17:56:16.551,8634,287.8,40.10474,-88.222,235.6419,0,157.8516,8,10,1416095776,-0.2370148,0.2953491,0.9079742,-41.46378,33.69577,3.509674,295.4061,298.4884,15,1.263785,0.5964298,0.6883718,-1.107712,-2.769986,-0.5351837,1.224025,0.4134303,0.8702505,-0.3477244,-0.0336197,0.009159202,172.17.160.76,10.64.29.0,6,unknown,2,2014-11-15 17:55:53.389,8,2014-11-15 17:52:35.410,3
2014-11-15 17:56:16.584,8635,287.8333,40.10474,-88.222,235.6419,0,157.8516,8,10,1416095776,-0.456665,0.5754242,0.7921143,-39.74749,34.93475,1.694611,296.3316,299.4139,15,1.41565,0.2943991,0.8040371,-1.114749,-2.755224,-0.580321,1.498496,0.524906,0.7339399,-0.05279972,-0.1955855,0.1103406,172.17.160.76,10.64.29.0,6,unknown,2,2014-11-15 17:55:53.389,8,2014-11-15 17:52:35.410,3
2014-11-15 17:56:16.618,8636,287.8667,40.10474,-88.222,235.6419,0,157.8516,8,10,1416095776,-0.1449127,0.6449585,0.687088,-38.61473,35.65749,0.1820068,296.9998,300.0821,15,1.220065,0.8498541,0.7567434,-1.121194,-2.746464,-0.6307388,1.408656,0.5512277,0.8373786,-0.1458012,-0.01431737,0.04674952,172.17.160.76,10.64.29.0,6,unknown,2,2014-11-15 17:55:53.389,8,2014-11-15 17:52:35.410,3
2014-11-15 17:56:16.651,8637,287.9,40.10474,-88.222,235.6419,0,157.8516,8,10,1416095776,-0.3628235,0.821106,0.8298798,-37.44764,37.10296,-2.641479,298.2991,301.3814,15,1.465225,0.4835976,0.6742855,-1.129419,-2.717206,-0.6919416,1.430691,0.8634855,0.679718,0.09138277,0.04604861,-0.02100774,172.17.160.76,10.64.29.0,6,unknown,2,2014-11-15 17:55:53.389,8,2014-11-15 17:52:35.410,3
2014-11-15 17:56:16.684,8638,287.9333,40.10474,-88.222,235.6419,0,157.8516,8,10,1416095776,-0.1972046,0.7320404,0.575882,-36.52084,37.68805,-4.221283,298.203,301.2853,15,1.452297,0.3593835,0.6874791,-1.128916,-2.698709,-0.7420297,1.572007,0.4760122,0.7365913,-0.04694232,0.1453206,0.1638969,172.17.160.76,10.64.29.0,6,unknown,2,2014-11-15 17:55:53.389,8,2014-11-15 17:52:35.410,3
2014-11-15 17:56:16.718,8639,287.9667,40.10474,-88.222,235.6419,0,157.8516,8,10,1416095776,-0.4942627,0.6265564,0.6466522,-35.45674,38.68613,-6.87674,194.8728,197.9551,15,1.549242,0.1934254,0.6671354,-1.122959,-2.674563,-0.8268405,1.612704,0.2945423,0.6282735,-0.1150967,-0.09188976,-0.04416556,172.17.160.76,10.64.29.0,6,unknown,2,2014-11-15 17:55:53.389,8,2014-11-15 17:52:35.410,3
2014-11-15 17:56:16.751,8640,288,40.10474,-88.222,235.6419,0,157.8516,8,10,1416095776,-0.3786011,0.7924042,0.5478821,-33.43151,39.61537,-9.330475,178.7799,181.8622,15,1.50094,0.3614123,0.8189313,-1.119945,-2.666829,-0.8618297,1.584588,0.2976797,0.7610804,-0.1966494,-0.1324787,0.0676081,172.17.160.76,10.64.29.0,6,unknown,2,2014-11-15 17:55:53.389,8,2014-11-15 17:52:35.410,3
2014-11-15 17:56:16.784,8641,288.0334,40.10474,-88.222,235.6419,0,157.8516,8,10,1416095776,-0.3423004,0.8449402,0.609436,-31.78386,40.30367,-11.68332,175.9255,179.0078,15,1.416263,0.9145908,0.7584726,-1.122487,-2.643301,-0.9318004,1.469718,0.9028282,0.8273246,-0.07561164,0.03202182,0.003535755,172.17.160.76,10.64.29.0,6,unknown,2,2014-11-15 17:55:53.389,8,2014-11-15 17:52:35.410,3
2014-11-15 17:56:16.818,8642,288.0667,40.10474,-88.222,235.6419,0,157.8516,8,10,1416095776,-0.235611,0.896347,0.5076141,-30.92572,40.33809,-13.26321,173.4681,176.5504,15,1.494987,0.9713885,0.8274732,-1.119256,-2.610255,-0.9824381,1.529621,1.044947,0.7960042,-0.06109097,0.01308717,0.1309574,172.17.160.76,10.64.29.0,6,unknown,2,2014-11-15 17:55:53.389,8,2014-11-15 17:52:35.410,3
2014-11-15 17:56:16.851,8643,288.1,40.10474,-88.222,235.6419,0,157.8516,8,10,1416095776,-0.05187988,0.9980011,0.4788666,-28.90049,40.3725,-16.59091,172.7359,175.8182,15,1.233006,0.9740363,0.7393036,-1.113736,-2.573271,-1.034474,1.468989,1.143647,0.7765827,0.09659676,0.06952909,0.06540831,172.17.160.76,10.64.29.0,6,unknown,2,2014-11-15 17:55:53.389,8,2014-11-15 17:52:35.410,3
2014-11-15 17:56:16.884,8644,288.1334,40.10474,-88.222,235.6419,0,157.8516,8,10,1416095776,-0.1391602,0.7668762,0.1445465,-26.01712,40.44133,-19.61612,173.4582,176.5405,15,1.462807,0.4236296,0.7535899,-1.107127,-2.536396,-1.080667,1.332157,0.8348572,0.8232356,0.2159354,0.1157291,0.09173462,172.17.160.76,10.64.29.0,2,unknown,2,2014-11-15 17:55:53.389,8,2014-11-15 17:52:35.410,3
2014-11-15 17:56:16.918,8645,288.1667,40.10474,-88.222,235.6419,0,157.8516,8,10,1416095776,-0.2704163,0.7978058,0.3150024,-24.81571,40.54459,-20.79251,173.5787,176.661,15,1.105006,0.1630558,0.5571834,-1.080912,-2.49413,-1.145967,1.488133,0.2707773,0.5691712,0.02742764,-0.1775884,-0.2358241,172.17.160.76,10.64.29.0,2,unknown,2,2014-11-15 17:55:53.389,8,2014-11-15 17:52:35.410,3
2014-11-15 17:56:16.951,8646,288.2,40.10474,-88.222,235.6419,0,157.8516,8,10,1416095776,-0.2354279,0.9941864,0.2823029,-22.6875,39.99393,-22.54037,171.0669,174.1492,15,0.7622702,-0.004720187,0.69133,-1.059057,-2.467343,-1.185346,0.9643862,0.1877082,0.6524289,-0.03568955,-0.1288233,0.02129857,172.17.160.76,10.64.29.0,2,unknown,2,2014-11-15 17:55:53.389,8,2014-11-15 17:52:35.410,3
2014-11-15 17:56:16.984,8647,288.2333,40.10474,-88.222,235.6419,0,157.8516,8,10,1416095776,-0.2174072,0.8885498,0.02478027,-21.10851,39.58095,-23.34714,170.6788,173.7612,15,0.9111249,0.4374636,0.580584,-1.054693,-2.456367,-1.230467,1.033956,0.4233228,0.6205031,-0.04249523,0.07650507,-0.07369826,172.17.160.76,10.64.29.0,2,unknown,2,2014-11-15 17:55:53.389,8,2014-11-15 17:52:35.410,3
2014-11-15 17:56:17.018,8648,288.2667,40.10474,-88.222,235.6419,0,157.8516,8,10,1416095776,-0.2132721,0.7047272,0.109848,-20.21604,39.16795,-23.88492,168.916,171.9983,15,0.4096738,0.2444249,0.3128903,-1.043,-2.429996,-1.26777,0.5430814,0.2762658,0.3922866,0.008641143,-0.1849066,-0.1594024,172.17.160.76,10.64.29.0,2,unknown,2,2014-11-15 17:55:53.389,8,2014-11-15 17:52:35.410,3
2014-11-15 17:56:17.051,8649,288.3,40.10474,-88.222,235.6419,0,157.8516,8,10,1416095776,-0.03985596,0.9490967,0.2487488,-18.49974,39.16795,-24.22104,169.2853,172.3676,15,-0.04846074,0.06671964,0.5323353,-1.044002,-2.421915,-1.283392,0.2061443,0.2382599,0.4039629,-0.01936442,-0.2432695,0.02129678,172.17.160.76,10.64.29.0,2,unknown,2,2014-11-15 17:55:53.389,8,2014-11-15 17:52:35.410,3
2014-11-15 17:56:17.085,8650,288.3333,40.10474,-88.222,235.6419,0,157.8516,8,10,1416095776,-0.05172729,0.8352051,-0.196167,-17.77889,39.06471,-24.38913,169.3487,172.431,15,0.395962,0.2142556,0.2565242,-1.071386,-2.445451,-1.29189,0.1467323,0.127387,0.633943,0.1366865,-0.01226033,0.03750139,172.17.160.76,10.64.29.0,2,unknown,2,2014-11-15 17:55:53.389,8,2014-11-15 17:52:35.410,3
2014-11-15 17:56:17.118,8651,288.3667,40.10473,-88.22202,235.488,0.6,143.0859,8,10,1416095777,-0.2636566,0.7678223,0.3421326,-16.78343,38.89262,-24.62442,167.3328,170.4151,15,0.0308671,-0.06909252,-0.001540905,-1.067734,-2.434902,-1.310555,0.2474672,0.01689827,0.07782879,0.06313638,-0.2817575,-0.4041415,172.17.160.76,10.64.29.0,2,unknown,2,2014-11-15 17:55:53.389,8,2014-11-15 17:52:35.410,3
2014-11-15 17:56:17.151,8652,288.4,40.10473,-88.22202,235.488,0.6,143.0859,8,10,1416095777,-0.2556763,1.030334,0.1083069,-16.16555,38.61729,-24.75888,169.5534,172.6357,15,0.02231303,0.3823655,0.1218774,-1.066604,-2.432949,-1.308874,-0.2071295,0.09969655,-0.1026079,-0.1712494,-0.04960366,0.2521636,172.17.160.76,10.64.29.0,2,unknown,2,2014-11-15 17:55:53.389,8,2014-11-15 17:52:35.410,3
2014-11-15 17:56:17.184,8653,288.4333,40.10473,-88.22202,235.488,0.6,143.0859,8,10,1416095777,-0.0291748,0.7215729,-0.02757263,-15.99392,38.51405,-24.99423,172.5844,175.6667,15,-0.1522457,0.3998619,0.0355817,-1.073317,-2.42779,-1.310833,0.1143003,0.5862945,0.1927813,-0.08738541,0.06393514,-0.08598801,172.17.160.76,10.64.29.0,2,unknown,2,2014-11-15 17:55:53.389,8,2014-11-15 17:52:35.410,3
2014-11-15 17:56:17.218,8654,288.4667,40.10473,-88.22202,235.488,0.6,143.0859,8,10,1416095777,-0.2615356,1.0065,0.3412476,-15.85662,38.85823,-25.33035,173.3168,176.3991,15,-0.3873424,0.2390315,-0.1713739,-1.083285,-2.418733,-1.309727,-0.1162147,0.3927286,-0.1279425,0.09056569,-0.2645154,-0.07993175,172.17.160.76,10.64.29.0,2,unknown,2,2014-11-15 17:55:53.389,8,2014-11-15 17:52:35.410,3
2014-11-15 17:56:17.251,8655,288.5,40.10473,-88.22202,235.488,0.6,143.0859,8,10,1416095777,-0.2095337,1.023621,0.1836853,-15.51336,39.13356,-25.26309,173.9574,177.0397,15,-0.1389342,0.02541987,0.121663,-1.090927,-2.416568,-1.301068,-0.3041642,0.228614,-0.0622912,-0.08482549,0.04265685,0.1417997,172.17.160.76,10.64.29.0,2,unknown,2,2014-11-15 17:55:53.389,8,2014-11-15 17:52:35.410,3
2014-11-15 17:56:17.285,8656,288.5334,40.10473,-88.22202,235.488,0.6,143.0859,8,10,1416095777,0.00163269,0.7655182,0.07006836,-15.10144,38.92706,-25.26309,174.7296,177.8119,15,-0.1281609,0.149691,0.1159082,-1.113585,-2.433733,-1.301882,-0.01289427,0.1283434,0.1865997,0.02428269,-0.07439626,-0.05726308,172.17.160.76,10.64.29.0,2,unknown,2,2014-11-15 17:55:53.389,8,2014-11-15 17:52:35.410,3
2014-11-15 17:56:17.318,8657,288.5667,40.10473,-88.22202,235.488,0.6,143.0859,8,10,1416095777,-0.3542023,1.083176,0.2282104,-15.47903,38.75499,-25.095,174.0062,177.0885,15,-0.3598844,-0.05522704,-0.1602885,-1.125933,-2.43852,-1.299481,-0.2559749,0.2450795,-0.13032,0.1816405,-0.1176245,-0.1145256,172.17.160.76,10.64.29.0,2,unknown,2,2014-11-15 17:55:53.389,8,2014-11-15 17:52:35.410,3
2014-11-15 17:56:17.351,8658,288.6,40.10473,-88.22202,235.488,0.6,143.0859,8,10,1416095777,-0.348053,0.8434448,0.3147888,-15.17009,38.44524,-25.39749,174.5374,177.6197,15,0.008621451,-0.0763523,0.3031495,-1.140243,-2.451627,-1.291432,-0.003515477,-0.08936771,0.2024016,-0.2754593,0.04188174,0.07236163,172.17.160.76,10.64.29.0,2,unknown,2,2014-11-15 17:55:53.389,8,2014-11-15 17:52:35.410,3
2014-11-15 17:56:17.384,8659,288.6334,40.10473,-88.22202,235.488,0.6,143.0859,8,10,1416095777,-0.1257477,1.026093,0.03382874,-14.31194,38.47963,-25.22946,175.7088,178.7911,15,-0.2400009,0.1718618,0.08990672,-1.162872,-2.470053,-1.297725,-0.04702634,0.2763803,0.2299661,-0.01956349,-0.1507981,0.01819346,172.17.160.76,10.64.29.0,2,unknown,2,2014-11-15 17:55:53.389,8,2014-11-15 17:52:35.410,3
2014-11-15 17:56:17.418,8660,288.6667,40.10473,-88.22202,235.488,0.6,143.0859,8,10,1416095777,-0.2536621,0.9542542,0.2703247,-13.93435,38.51405,-25.19583,175.6046,178.6869,15,-0.2611112,0.115986,0.005834453,-1.182362,-2.483849,-1.293327,-0.2713611,0.08439884,-0.02072569,0.04171035,0.0643409,-0.1829467,172.17.160.76,10.64.29.0,2,unknown,2,2014-11-15 17:55:53.389,8,2014-11-15 17:52:35.410,3
2014-11-15 17:56:17.451,8661,288.7,40.10473,-88.22202,235.488,0.6,143.0859,8,10,1416095777,-0.1449738,1.003113,0.1375122,-14.07167,38.72055,-24.92691,175.5169,178.5992,15,-0.1601995,0.04871188,0.1091276,-1.197234,-2.490058,-1.29168,-0.02858359,0.3788172,0.1476297,-0.02581747,-0.08228625,0.07780508,172.17.160.76,10.64.29.0,2,unknown,2,2014-11-15 17:55:53.389,8,2014-11-15 17:52:35.410,3
2014-11-15 17:56:17.484,8662,288.7333,40.10473,-88.22202,235.488,0.6,143.0859,8,10,1416095777,-0.2585754,0.9866791,0.1258545,-14.03734,38.96146,-25.0278,175.72,178.8023,15,-0.2255082,-0.219902,0.1334332,-1.213855,-2.501312,-1.292187,-0.1375805,-0.06655053,0.1202168,0.01932804,0.04167397,-0.08303326,172.17.160.76,10.64.29.0,2,unknown,2,2014-11-15 17:55:53.389,8,2014-11-15 17:52:35.410,3
2014-11-15 17:56:17.518,8663,288.7667,40.10473,-88.22202,235.488,0.6,143.0859,8,10,1416095777,-0.1152039,0.9765625,0.4476929,-13.76273,39.44328,-25.22946,175.9711,179.0534,15,-0.1081845,0.2089309,0.2233551,-1.248095,-2.535796,-1.292142,-0.08336361,0.1701422,0.2305928,-0.1013396,-0.07400567,0.04663609,172.17.160.76,10.64.29.0,2,unknown,2,2014-11-15 17:55:53.389,8,2014-11-15 17:52:35.410,3
2014-11-15 17:56:17.551,8664,288.8,40.10473,-88.22202,235.488,0.6,143.0859,8,10,1416095777,-0.1232147,0.9872131,0.0799408,-13.4538,39.75302,-25.59915,177.2771,180.3594,15,-0.1839725,-0.1250716,0.1709289,-1.271435,-2.55057,-1.294888,-0.05662694,0.1901421,0.2072453,0.03659214,0.01438439,0.2214822,172.17.160.76,10.64.29.0,2,unknown,2,2014-11-15 17:55:53.389,8,2014-11-15 17:52:35.410,3
2014-11-15 17:56:17.584,8665,288.8333,40.10473,-88.22202,235.488,0.6,143.0859,8,10,1416095777,-0.1216431,0.9062805,0.3810425,-13.21351,39.51212,-24.89328,177.2827,180.3651,15,-0.1787692,-0.02574904,0.2383058,-1.30653,-2.587454,-1.295595,-0.08384152,-0.1661441,0.3031272,-0.1034821,0.03578324,-0.1126067,172.17.160.76,10.64.29.0,2,unknown,2,2014-11-15 17:55:53.389,8,2014-11-15 17:52:35.410,3
2014-11-15 17:56:17.618,8666,288.8667,40.10473,-88.22202,235.488,0.6,143.0859,8,10,1416095777,-0.3266296,0.9787445,0.06282043,-13.4538,39.61537,-24.72519,175.3463,178.4286,15,-0.05979356,-0.3632925,0.2923413,-1.347471,-2.627243,-1.29579,-0.02521009,-0.1938494,0.2963927,0.05734749,-0.07120338,0.002962323,172.17.160.76,10.64.29.0,2,unknown,2,2014-11-15 17:55:53.389,8,2014-11-15 17:52:35.410,3
2014-11-15 17:56:17.651,8667,288.9,40.10473,-88.22202,235.488,0.6,143.0859,8,10,1416095777,-0.05603027,0.834671,0.2053528,-12.93891,39.85629,-24.35544,174.5159,177.5983,15,-0.4410602,0.3433608,-0.007155115,-1.376439,-2.659755,-1.296003,-0.3165009,0.114067,0.1069766,-0.1118957,-0.03856174,-0.1956383,172.17.160.76,10.64.29.0,2,unknown,2,2014-11-15 17:55:53.389,8,2014-11-15 17:52:35.410,3
2014-11-15 17:56:17.684,8668,288.9333,40.10473,-88.22202,235.488,0.6,143.0859,8,10,1416095777,-0.2730713,1.095627,0.3690338,-12.90458,40.44136,-24.59067,174.2244,177.3067,15,-0.3774448,0.3314245,0.1050609,-1.394355,-2.663271,-1.286998,-0.3181053,0.4800339,0.02505265,-0.04023017,-0.09685496,0.1009545,172.17.160.76,10.64.29.0,2,unknown,2,2014-11-15 17:55:53.389,8,2014-11-15 17:52:35.410,3
2014-11-15 17:56:17.718,8669,288.9667,40.10473,-88.22202,235.488,0.6,143.0859,8,10,1416095777,-0.1290894,0.9467773,0.1371307,-12.6643,40.5446,-24.6243,174.9498,178.0321,15,-0.09034907,0.1585401,0.3058185,-1.42268,-2.679501,-1.283602,-0.07274871,0.3001232,0.2779421,-0.1467869,0.1365843,0.1154796,172.17.160.76,10.64.29.0,2,unknown,2,2014-11-15 17:55:53.389,8,2014-11-15 17:52:35.410,3
2014-11-15 17:56:17.751,8670,289,40.10473,-88.22202,235.488,0.6,143.0859,8,10,1416095777,0.007949829,1.073624,0.5643616,-12.08075,40.85434,-24.52353,176.6188,179.7011,15,-0.407583,0.2203776,0.1725238,-1.459162,-2.708068,-1.285895,-0.1690057,0.2274903,0.3628384,0.05738238,-0.07887583,-0.09475287,172.17.160.76,10.64.29.0,2,unknown,2,2014-11-15 17:55:53.389,8,2014-11-15 17:52:35.410,3
2014-11-15 17:56:17.784,8671,289.0334,40.10473,-88.22202,235.488,0.6,143.0859,8,10,1416095777,-0.2710876,1.047424,0.05754089,-11.42857,41.02644,-24.4227,176.5087,179.591,15,0.1473106,-0.308221,0.5635952,-1.508809,-2.74775,-1.281551,-0.02227855,-0.03882528,0.4235139,0.02559142,0.1541046,0.247808,172.17.160.76,10.64.29.0,2,unknown,2,2014-11-15 17:55:53.389,8,2014-11-15 17:52:35.410,3
2014-11-15 17:56:17.818,8672,289.0667,40.10473,-88.22202,235.488,0.6,143.0859,8,10,1416095777,-0.1697845,0.7485046,0.3298645,-10.91368,41.40501,-24.52347,176.9866,180.0689,15,-0.2037273,-0.2897253,0.3166203,-1.558873,-2.805592,-1.29381,0.1592781,-0.4607774,0.5607276,-0.1114819,-0.04885902,-0.4138367,172.17.160.76,10.64.29.0,2,unknown,2,2014-11-15 17:55:53.389,8,2014-11-15 17:52:35.410,3
2014-11-15 17:56:17.851,8673,289.1,40.10473,-88.22202,235.488,0.6,143.0859,8,10,1416095777,-0.212738,1.051483,0.4053802,-10.84503,41.40501,-24.85959,174.202,177.2843,15,-0.1739481,0.4551198,0.1760696,-1.600991,-2.853649,-1.294326,-0.2317889,0.03240922,0.2750044,-0.0922684,-0.2135202,0.06814053,172.17.160.76,10.64.29.0,2,unknown,2,2014-11-15 17:55:53.389,8,2014-11-15 17:52:35.410,3
2014-11-15 17:56:17.884,8674,289.1334,40.10473,-88.22202,235.488,0.6,143.0859,8,10,1416095777,-0.04711914,0.9092255,0.02711487,-10.77638,42.02449,-24.65793,174.1203,177.2026,15,-0.02898505,0.554109,0.2078925,-1.620392,-2.865482,-1.291971,-0.1075018,0.5215672,0.1921963,-0.1082269,0.03761364,0.1548755,172.17.160.76,10.64.29.0,2,unknown,2,2014-11-15 17:55:53.389,8,2014-11-15 17:52:35.410,3
2014-11-15 17:56:17.918,8675,289.1667,40.10473,-88.22202,235.488,0.6,143.0859,8,10,1416095777,0.03660583,0.9405518,0.271759,-10.33014,41.71475,-24.82602,174.4389,177.5212,15,-0.3220702,0.1228873,0.07191094,-1.668488,-2.881712,-1.291766,-0.2428734,0.2703409,0.1223838,0.1382793,-0.1401101,-0.1001749,172.17.160.76,10.64.29.0,2,unknown,2,2014-11-15 17:55:53.389,8,2014-11-15 17:52:35.410,3
2014-11-15 17:56:17.951,8676,289.2,40.10473,-88.22202,235.488,0.6,143.0859,8,10,1416095777,-0.1156769,0.9660797,0.2215271,-9.64362,41.78358,-24.4899,175.1855,178.2678,10,-0.1989381,0.07624684,0.235734,-1.685803,-2.892838,-1.286442,-0.1599318,0.1686248,0.1661197,0.02516805,0.009685318,0.04050532,172.17.160.76,10.64.29.0,2,unknown,2,2014-11-15 17:55:53.389,8,2014-11-15 17:52:35.410,3
2014-11-15 17:56:17.984,8677,289.2333,40.10473,-88.22202,235.488,0.6,143.0859,8,10,1416095777,-0.01980591,0.9416962,0.2999268,-9.403332,41.40501,-24.92685,175.3691,178.4514,10,-0.2380996,-0.007479222,0.1207997,-1.714705,-2.916158,-1.284893,-0.1153501,0.1467268,0.2242188,0.03287423,-0.0129503,-0.1227736,172.17.160.76,10.64.29.0,2,unknown,2,2014-11-15 17:55:53.389,8,2014-11-15 17:52:35.410,3
2014-11-15 17:56:18.018,8678,289.2667,40.10473,-88.22202,235.488,0.6,143.0859,8,10,1416095777,-0.1488342,1.026031,0.2686462,-9.06007,42.16217,-24.65793,175.7002,178.7825,10,-0.2156828,-0.1555435,0.0732308,-1.730451,-2.93207,-1.280043,-0.2004055,-0.1306019,0.07765381,0.0398201,-0.01633217,0.01952267,172.17.160.76,10.64.29.0,2,unknown,2,2014-11-15 17:55:53.389,8,2014-11-15 17:52:35.410,3
2014-11-15 17:56:18.051,8679,289.3,40.10473,-88.22202,235.488,0.6,143.0859,8,10,1416095777,0.07066345,1.001999,0.3681488,-9.025745,42.60957,-24.75876,174.2578,177.3401,10,-0.2772742,0.3341314,-0.2349742,-1.740753,-2.941796,-1.277122,-0.1093839,0.1760047,0.02054594,0.02437021,0.08825386,-0.05095488,172.17.160.76,10.64.29.0,2,unknown,2,2014-11-15 17:55:53.389,8,2014-11-15 17:52:35.410,3
2014-11-15 17:56:18.084,8680,289.3333,40.10473,-88.22202,235.488,0.6,143.0859,8,10,1416095777,0.1147003,1.057327,0.2344971,-9.231709,42.74724,-25.02768,174.5661,177.6484,10,-0.1133553,-0.1709978,-0.2796458,-1.724398,-2.914948,-1.269343,-0.09833069,0.05152273,-0.1414964,0.09087281,0.1007428,0.1166144,172.17.160.76,10.64.29.0,2,unknown,2,2014-11-15 17:55:53.389,8,2014-11-15 17:52:35.410,3
2014-11-15 17:56:18.118,8681,289.3667,40.10473,-88.22203,235.7815,0.78,186.6797,8,10,1416095778,-0.265564,0.7792816,0.1766663,-9.231709,42.81607,-25.02768,174.2272,177.3095,10,-0.05811311,-0.8364462,-0.03178563,-1.702675,-2.897682,-1.266208,0.01693158,-0.2895263,-0.2711019,0.1455152,-0.01444112,-0.1831745,172.17.160.76,10.64.29.0,2,unknown,2,2014-11-15 17:55:53.389,8,2014-11-15 17:52:35.410,3
2014-11-15 17:56:18.151,8682,289.4,40.10473,-88.22203,235.7815,0.78,186.6797,8,10,1416095778,-0.1239471,1.022949,0.6230621,-9.506313,43.02257,-25.36374,173.5683,176.6506,10,-0.2845942,-0.4769098,-0.1351924,-1.694487,-2.909678,-1.26491,-0.1897834,-0.6819792,-0.05054481,-0.1912229,-0.09840152,-0.1130382,172.17.160.76,10.64.29.0,2,unknown,2,2014-11-15 17:55:53.389,8,2014-11-15 17:52:35.410,3
2014-11-15 17:56:18.184,8683,289.4333,40.10473,-88.22203,235.7815,0.78,186.6797,8,10,1416095778,-0.07592773,0.9434509,0.1427612,-10.05553,43.36673,-24.6915,172.3165,175.3988,10,-0.02131727,-0.01596831,-0.005311675,-1.675737,-2.899612,-1.256494,-0.1440968,-0.05191144,-0.1928211,-0.3315434,0.2729715,0.3764591,172.17.160.76,10.64.29.0,2,unknown,2,2014-11-15 17:55:53.389,8,2014-11-15 17:52:35.410,3
2014-11-15 17:56:18.217,8684,289.4667,40.10473,-88.22203,235.7815,0.78,186.6797,8,10,1416095778,0.000869751,0.9459991,0.2644196,-10.19284,43.16023,-24.82596,172.7305,175.8129,10,-0.2223415,0.1980268,-0.1032113,-1.682552,-2.892587,-1.260956,-0.05148083,0.4806686,-0.01415748,0.2117228,-0.02853883,-0.1660625,172.17.160.76,10.64.29.0,2,unknown,2,2014-11-15 17:55:53.389,8,2014-11-15 17:52:35.410,3
2014-11-15 17:56:18.250,8685,289.5,40.10473,-88.22203,235.7815,0.78,186.6797,8,10,1416095778,0.1388397,0.6731262,0.2030792,-9.952564,43.12579,-24.32181,172.9054,175.9877,10,-0.1549459,-0.1086596,0.0944799,-1.684998,-2.889144,-1.25693,-0.106508,0.06608111,0.09850532,0.02319059,-0.1377315,-0.05998448,172.17.160.76,10.64.29.0,2,unknown,2,2014-11-15 17:55:53.389,8,2014-11-15 17:52:35.410,3
2014-11-15 17:56:18.285,8686,289.5334,40.10473,-88.22203,235.7815,0.78,186.6797,8,10,1416095778,-0.2322388,1.018997,0.2481537,-9.91824,42.74724,-24.35544,171.9694,175.0517,10,-0.1398756,-0.5412577,-0.06389243,-1.691993,-2.897483,-1.255934,-0.05434705,-0.2052282,0.05442195,0.2136882,-0.2777129,-0.09742471,172.17.160.76,10.64.29.0,2,unknown,2,2014-11-15 17:55:53.389,8,2014-11-15 17:52:35.410,3
2014-11-15 17:56:18.318,8687,289.5667,40.10473,-88.22203,235.7815,0.78,186.6797,8,10,1416095778,-0.1738586,1.00531,0.3582001,-10.26149,43.16025,-24.4227,171.2647,174.347,10,-0.1067685,-0.1602957,0.01335495,-1.691776,-2.918252,-1.253826,-0.01720714,-0.3655723,0.07042209,-0.2346905,0.03651038,-0.05812911,172.17.160.76,10.64.29.0,2,unknown,2,2014-11-15 17:55:53.389,8,2014-11-15 17:52:35.410,3
2014-11-15 17:56:18.351,8688,289.6,40.10473,-88.22203,235.7815,0.78,186.6797,8,10,1416095778,-0.1201324,0.8769531,0.2868042,-11.051,42.85051,-24.65793,170.5639,173.6462,10,-0.07098283,0.3768597,-0.05082377,-1.690555,-2.9149,-1.252102,-0.06628034,0.3174732,-0.09775744,-0.1226471,0.05409321,0.09775008,172.17.160.76,10.64.29.0,2,unknown,2,2014-11-15 17:55:53.389,8,2014-11-15 17:52:35.410,3
2014-11-15 17:56:18.384,8689,289.6334,40.10473,-88.22203,235.7815,0.78,186.6797,8,10,1416095778,0.01812744,0.8778381,0.2223511,-11.22262,42.67842,-24.4899,171.7417,174.824,10,-0.1118991,-0.009619338,-0.01449239,-1.686806,-2.894759,-1.251858,0.0368013,0.3778535,0.0253063,0.03593328,-0.1149283,-0.09755795,172.17.160.76,10.64.29.0,2,unknown,2,2014-11-15 17:55:53.389,8,2014-11-15 17:52:35.410,3
2014-11-15 17:56:18.418,8690,289.6667,40.10473,-88.22203,235.7815,0.78,186.6797,8,10,1416095778,-0.1114502,1.038971,0.2713776,-10.67341,42.33426,-24.28812,172.4514,175.5337,10,-0.07182572,-0.3013116,0.05600228,-1.688287,-2.892993,-1.251053,-0.07540552,-0.1090197,-0.01081546,0.04367715,0.01911347,-0.02916266,172.17.160.76,10.64.29.0,2,unknown,2,2014-11-15 17:55:53.389,8,2014-11-15 17:52:35.410,3
2014-11-15 17:56:18.450,8691,289.7,40.10473,-88.22203,235.7815,0.78,186.6797,8,10,1416095778,-0.05236816,0.8757629,0.3217621,-10.19284,42.67842,-23.95206,173.0168,176.0991,10,-0.08495884,-0.264258,0.178317,-1.694081,-2.904989,-1.250804,0.0179139,-0.2291969,0.1219489,-0.03771694,0.08973314,-0.03441811,172.17.160.76,10.64.29.0,2,unknown,2,2014-11-15 17:55:53.389,8,2014-11-15 17:52:35.410,3
2014-11-15 17:56:18.485,8692,289.7333,40.10473,-88.22203,235.7815,0.78,186.6797,8,10,1416095778,0.01641846,1.216217,0.4360809,-9.780933,42.88492,-24.22092,173.5615,176.6438,10,-0.1345717,-0.2015875,0.03128682,-1.710689,-2.926723,-1.251793,-0.01313249,-0.1681741,0.1807679,0.01450196,-0.0737854,0.01535331,172.17.160.76,10.64.29.0,2,unknown,2,2014-11-15 17:55:53.389,8,2014-11-15 17:52:35.410,3
2014-11-15 17:56:18.517,8693,289.7667,40.10473,-88.22203,235.7815,0.78,186.6797,8,10,1416095778,-0.06018066,1.02095,0.3261414,-10.26149,42.54076,-24.01926,171.993,175.0753,10,-0.005856824,-0.4404895,0.06245273,-1.708045,-2.927413,-1.252122,0.1555645,-0.1806186,0.09090603,0.02060245,-0.02359556,0.0742826,172.17.160.76,10.64.29.0,2,unknown,2,2014-11-15 17:55:53.389,8,2014-11-15 17:52:35.410,3
2014-11-15 17:56:18.550,8694,289.8,40.10473,-88.22203,235.7815,0.78,186.6797,8,10,1416095778,-0.1176605,0.7461853,0.2158966,-10.22718,42.09337,-24.25455,171.9592,175.0415,10,0.05799593,-0.49028,0.08636551,-1.723994,-2.955058,-1.270933,0.06598422,-0.3975359,0.06357992,0.02252436,0.021323,-0.0547767,172.17.160.76,10.64.29.0,2,unknown,2,2014-11-15 17:55:53.389,8,2014-11-15 17:52:35.410,3
2014-11-15 17:56:18.584,8695,289.8333,40.10473,-88.22203,235.7815,0.78,186.6797,8,10,1416095778,-0.1294098,0.9494781,0.2661591,-10.29583,42.02455,-24.18735,170.7351,173.8174,10,-0.1860854,-0.5466996,0.05726089,-1.735977,-2.980348,-1.273763,-0.02500148,-0.5147367,0.1567138,-0.1567457,-0.2455156,-0.007424728,172.17.160.76,10.64.29.0,2,unknown,2,2014-11-15 17:55:53.389,8,2014-11-15 17:52:35.410,3
2014-11-15 17:56:18.617,8696,289.8667,40.10473,-88.22203,235.7815,0.78,186.6797,8,10,1416095778,-0.2736511,0.9142303,0.3111725,-10.02122,42.71288,-24.18735,170.5311,173.6134,10,-0.09774307,0.03221466,-0.1024281,-1.737015,-2.991672,-1.270613,-0.07505281,-0.1108352,-0.1116499,-0.08524474,-0.005804052,-0.02621974,172.17.160.76,10.64.29.0,2,unknown,2,2014-11-15 17:55:53.389,8,2014-11-15 17:52:35.410,3
2014-11-15 17:56:18.651,8697,289.9,40.10473,-88.22203,235.7815,0.78,186.6797,8,10,1416095778,-0.07011414,0.8731842,0.2546082,-10.36448,42.91937,-24.25461,169.4762,172.5585,10,-0.184891,0.5606908,-0.05685955,-1.611804,-2.854159,-1.258917,-0.108977,0.4316196,-0.0482581,-0.1270612,0.01268857,0.03163758,172.17.160.76,10.64.29.0,2,unknown,2,2014-11-15 17:55:53.389,8,2014-11-15 17:52:35.410,3
2014-11-15 17:56:18.684,8698,289.9333,40.10473,-88.22203,235.7815,0.78,186.6797,8,10,1416095778,-0.01499939,0.9743958,0.2678528,-10.53611,42.88496,-24.5571,170.4546,173.5369,10,-0.1534125,0.3724346,0.06197868,-1.61183,-2.836651,-1.25519,-0.09519529,0.5765895,0.01401956,0.02307737,-0.07742412,-0.04146473,172.17.160.76,10.64.29.0,2,unknown,2,2014-11-15 17:55:53.389,8,2014-11-15 17:52:35.410,3
2014-11-15 17:56:18.718,8699,289.9667,40.10473,-88.22203,235.7815,0.78,186.6797,8,10,1416095778,0.054245,1.035492,0.3311615,-11.08532,43.09146,-24.69156,171.5861,174.6684,10,-0.2262539,-0.1770539,0.03812821,-1.623579,-2.838618,-1.252984,-0.1353023,0.1002598,0.1125021,0.07823503,0.02447437,-0.03040334,172.17.160.76,10.64.29.0,2,unknown,2,2014-11-15 17:55:53.389,8,2014-11-15 17:52:35.410,3
2014-11-15 17:56:18.751,8700,290,40.10473,-88.22203,235.7815,0.78,186.6797,8,10,1416095778,-0.05593872,0.9766388,0.3705902,-10.94802,43.91745,-24.5571,171.5005,174.5828,10,-0.08808352,-0.5284606,0.08671146,-1.637984,-2.856102,-1.249185,-0.02892824,-0.1696228,0.1202358,0.1432663,0.08676448,0.02786064,172.17.160.76,10.64.29.0,2,unknown,2,2014-11-15 17:55:53.389,8,2014-11-15 17:52:35.410,3
2014-11-15 17:56:18.784,8701,290.0334,40.10473,-88.22203,235.7815,0.78,186.6797,8,10,1416095778,-0.1786041,0.8545532,0.2602844,-11.08532,43.77979,-24.6915,171.3416,174.424,10,-0.02503798,-0.4511459,0.05716103,-1.648339,-2.87776,-1.249739,-0.02692028,-0.5174384,0.07275287,0.02635638,0.02773664,0.06593923,172.17.160.76,10.64.29.0,2,unknown,2,2014-11-15 17:55:53.389,8,2014-11-15 17:52:35.410,3
2014-11-15 17:56:18.818,8702,290.0667,40.10473,-88.22203,235.7815,0.78,186.6797,8,10,1416095778,-0.1373901,0.9496918,0.3588104,-10.98234,44.08954,-24.45621,169.8415,172.9238,10,-0.2251855,-0.1355411,0.04789615,-1.663103,-2.910567,-1.2491,-0.1611347,-0.2514979,0.1043772,-0.100058,-0.08247418,-0.01697438,172.17.160.76,10.64.29.0,2,unknown,2,2014-11-15 17:55:53.389,8,2014-11-15 17:52:35.410,3
2014-11-15 17:56:18.851,8703,290.1,40.10473,-88.22203,235.7815,0.78,186.6797,8,10,1416095778,-0.1484833,0.9900513,0.4472656,-10.94802,43.98627,-24.22092,169.7122,172.7945,10,-0.08539533,0.1387161,0.07216953,-1.66917,-2.915343,-1.245566,-0.07419831,0.1696401,0.0171048,-0.1056447,0.0231413,0.08941863,172.17.160.76,10.64.29.0,2,unknown,2,2014-11-15 17:55:53.389,8,2014-11-15 17:52:35.410,3
2014-11-15 17:56:18.884,8704,290.1334,40.10473,-88.22203,235.7815,0.78,186.6797,8,10,1416095778,0.2110596,1.139206,0.2611237,-10.81072,44.39928,-24.08646,170.4024,173.4847,10,-0.05266934,0.1490859,0.1814342,-1.682715,-2.921797,-1.245924,-0.003409225,0.2041985,0.2367484,0.002865904,0.0629286,0.07775829,172.17.160.76,10.64.29.0,2,unknown,2,2014-11-15 17:55:53.389,8,2014-11-15 17:52:35.410,3
2014-11-15 17:56:18.918,8705,290.1667,40.10473,-88.22203,235.7815,0.78,186.6797,8,10,1416095778,-0.06744385,1.024796,0.3490753,-10.43313,44.2272,-24.18729,170.1552,173.2375,10,-0.1543435,-0.3848321,-0.1755316,-1.69084,-2.925571,-1.241288,-0.2849074,-0.05475175,-0.1626785,0.2798983,0.1591605,-0.1233542,172.17.160.76,10.64.29.0,2,unknown,2,2014-11-15 17:55:53.389,8,2014-11-15 17:52:35.410,3
2014-11-15 17:56:18.951,8706,290.2,40.10473,-88.22203,235.7815,0.78,186.6797,8,10,1416095778,-0.2600403,0.6232147,0.1640167,-10.70773,44.02071,-23.91843,169.9132,172.9955,10,0.1817621,-0.3367674,-0.2625171,-1.677743,-2.921498,-1.236535,-0.204981,-0.3006445,-0.2162853,0.09486432,0.02641651,-0.03010326,172.17.160.76,10.64.29.0,2,unknown,2,2014-11-15 17:55:53.389,8,2014-11-15 17:52:35.410,3
2014-11-15 17:56:18.984,8707,290.2333,40.10473,-88.22203,235.7815,0.78,186.6797,8,10,1416095778,-0.3114166,0.9934845,0.1317139,-10.81071,44.0551,-23.54868,169.6586,172.741,10,-0.5174628,-0.1482656,-0.2493528,-1.64429,-2.904837,-1.241165,0.2009944,-0.6399695,-0.2397607,-0.3669027,-0.3070626,-0.09318324,172.17.160.76,10.64.29.0,2,unknown,2,2014-11-15 17:55:53.389,8,2014-11-15 17:52:35.410,3
2014-11-15 17:56:19.018,8708,290.2667,40.10473,-88.22203,235.7815,0.78,186.6797,8,10,1416095778,-0.1068726,1.043991,0.6243896,-11.73752,44.2272,-23.11172,168.6121,171.6944,10,-0.4584938,0.6855115,-0.1485882,-1.632062,-2.897672,-1.230212,-0.5009305,0.4330331,-0.1667316,-0.1038514,0.02333711,-0.08782221,172.17.160.76,10.64.29.0,2,unknown,2,2014-11-15 17:55:53.389,8,2014-11-15 17:52:35.410,3
2014-11-15 17:56:19.051,8709,290.3,40.10473,-88.22203,235.7815,0.78,186.6797,8,10,1416095778,-0.009979248,0.9139862,0.196167,-11.73752,44.36485,-23.11172,170.9537,174.036,10,0.03612844,0.7076988,-0.1344012,-1.629357,-2.873628,-1.217575,-0.3099394,0.7008008,-0.1543605,-0.01528314,0.1057278,0.2908129,172.17.160.76,10.64.29.0,2,unknown,2,2014-11-15 17:55:53.389,8,2014-11-15 17:52:35.410,3
2014-11-15 17:56:19.085,8710,290.3333,40.10473,-88.22203,235.7815,0.78,186.6797,8,10,1416095778,0.02009583,0.6940918,0.1917725,-11.70319,43.77979,-23.48148,171.1304,174.2127,10,-0.2044589,0.05702733,-0.05943856,-1.618818,-2.841763,-1.217184,0.2131746,0.6630203,-0.05886204,0.09229969,-0.02414179,-0.1346727,172.17.160.76,10.64.29.0,2,unknown,2,2014-11-15 17:55:53.389,8,2014-11-15 17:52:35.410,3
2014-11-15 17:56:19.118,8711,290.3667,40.10472,-88.22206,235.5934,0.71,230.2734,8,10,1416095779,-0.1799316,1.140472,0.4769592,-11.3256,43.81421,-24.25455,173.5823,176.6646,10,-0.3864399,-0.4424326,0.06280613,-1.626483,-2.850205,-1.206043,-0.4149033,-0.4258654,0.0746868,-0.01544105,-0.04883573,0.008949748,172.17.160.76,10.64.29.0,2,unknown,2,2014-11-15 17:55:53.389,8,2014-11-15 17:52:35.410,3
2014-11-15 17:56:19.151,8712,290.4,40.10472,-88.22206,235.5934,0.71,230.2734,8,10,1416095779,0.008834839,1.053055,0.4402618,-11.53157,44.2272,-24.38901,173.8907,176.973,10,-0.1655245,0.3749976,-0.1629966,-1.632922,-2.860981,-1.19655,-0.2837111,0.2291589,-0.1346516,-0.01286284,0.2704799,0.09605455,172.17.160.76,10.64.29.0,2,unknown,2,2014-11-15 17:55:53.389,8,2014-11-15 17:52:35.410,3
2014-11-15 17:56:19.184,8713,290.4333,40.10472,-88.22206,235.5934,0.71,230.2734,8,10,1416095779,0.05142212,0.8728943,0.2126312,-11.80618,44.70901,-23.85117,173.6006,176.6829,10,-0.1597332,0.2514136,-0.3473055,-1.616736,-2.835167,-1.193219,-0.02511052,0.2445292,-0.3350977,0.1200449,0.1234942,0.08876596,172.17.160.76,10.64.29.0,2,unknown,2,2014-11-15 17:55:53.389,8,2014-11-15 17:52:35.410,3
2014-11-15 17:56:19.218,8714,290.4667,40.10472,-88.22206,235.5934,0.71,230.2734,8,10,1416095779,-0.07798767,0.6940155,0.29039,-11.94348,44.77785,-23.38052,174.0811,177.1634,10,-0.07923809,0.2037158,-0.1854514,-1.602397,-2.815124,-1.189732,-0.07429112,0.3928862,-0.2502753,0.1802148,0.06255999,-0.03802484,172.17.160.76,10.64.29.0,2,unknown,2,2014-11-15 17:55:53.389,8,2014-11-15 17:52:35.410,3
2014-11-15 17:56:19.251,8715,290.5,40.10472,-88.22206,235.5934,0.71,230.2734,8,10,1416095779,-0.1200867,0.9569092,0.3864746,-12.42403,44.29602,-23.64944,174.3603,177.4426,10,-0.3443808,-0.6778715,-0.1572565,-1.591722,-2.806291,-1.184034,-0.2575593,-0.4168853,-0.133906,0.0370805,-0.1419706,-0.009735858,172.17.160.76,10.64.29.0,2,unknown,2,2014-11-15 17:55:53.389,8,2014-11-15 17:52:35.410,3
2014-11-15 17:56:19.284,8716,290.5334,40.10472,-88.22206,235.5934,0.71,230.2734,8,10,1416095779,-0.05641174,0.8873291,0.3808289,-12.35538,44.77786,-23.78384,174.6691,177.7514,10,-0.3334422,-0.5082361,-0.2062938,-1.588383,-2.820351,-1.174673,-0.2864329,-0.5529163,-0.1387602,0.00174185,0.03434531,0.02036844,172.17.160.76,10.64.29.0,2,unknown,2,2014-11-15 17:55:53.389,8,2014-11-15 17:52:35.410,3
2014-11-15 17:56:19.318,8717,290.5667,40.10472,-88.22206,235.5934,0.71,230.2734,8,10,1416095779,-0.1942749,1.01236,0.4186554,-13.1792,45.2597,-23.24606,173.5103,176.5926,10,-0.3282751,-0.3976478,-0.4774702,-1.583879,-2.836769,-1.160737,-0.2793032,-0.5015393,-0.369911,0.04959574,0.005159173,-0.002599484,172.17.160.76,10.64.29.0,2,unknown,2,2014-11-15 17:55:53.389,8,2014-11-15 17:52:35.410,3
2014-11-15 17:56:19.351,8718,290.6,40.10472,-88.22206,235.5934,0.71,230.2734,8,10,1416095779,-0.2272949,1.205902,0.8327637,-14.03736,45.2941,-22.47293,172.8843,175.9666,10,-0.009050487,-0.1237843,-0.2118529,-1.559166,-2.82482,-1.150029,-0.2117973,-0.1915651,-0.4046206,-0.06703876,0.09958383,0.03051712,172.17.160.76,10.64.29.0,2,unknown,2,2014-11-15 17:55:53.389,8,2014-11-15 17:52:35.410,3
2014-11-15 17:56:19.384,8719,290.6334,40.10472,-88.22206,235.5934,0.71,230.2734,8,10,1416095779,-0.1458893,0.7426758,0.6542206,-14.72387,44.81229,-21.80069,171.9589,175.0412,10,0.1012185,-0.09359147,-0.005117797,-1.543677,-2.815476,-1.146132,-0.02502773,-0.433309,-0.1826204,-0.09529889,0.2947251,0.4424644,172.17.160.76,10.64.29.0,2,unknown,2,2014-11-15 17:55:53.389,8,2014-11-15 17:52:35.410,3
2014-11-15 17:56:19.418,8720,290.6667,40.10472,-88.22206,235.5934,0.71,230.2734,8,10,1416095779,-0.2120819,0.8271179,0.1637726,-14.99847,44.67461,-21.66623,172.3522,175.4345,10,-0.2978328,-0.8909824,-0.09274112,-1.544588,-2.823712,-1.152341,0.02977944,-0.6851614,-0.04085908,-0.2189868,-0.04173895,0.1195933,172.17.160.76,10.64.29.0,2,unknown,2,2014-11-15 17:55:53.389,8,2014-11-15 17:52:35.410,3
2014-11-15 17:56:19.451,8721,290.7,40.10472,-88.22206,235.5934,0.71,230.2734,8,10,1416095779,-0.08387756,0.8756714,0.3959656,-14.68954,44.98434,-21.49826,173.4168,176.4991,10,-0.09000233,0.4238229,0.258386,-1.554961,-2.840374,-1.146579,-0.1280575,0.5563868,0.2953292,0.07261791,-0.1982265,-0.2106411,172.17.160.76,10.64.29.0,2,unknown,2,2014-11-15 17:55:53.389,8,2014-11-15 17:52:35.410,3
2014-11-15 17:56:19.484,8722,290.7333,40.10472,-88.22206,235.5934,0.71,230.2734,8,10,1416095779,-0.07296753,1.009201,0.4916229,-14.92981,45.22527,-21.80075,173.3147,176.397,10,-0.1626627,-0.3065709,-0.224978,-1.564595,-2.841816,-1.14672,-0.08812921,0.08034541,0.01350307,0.07022795,-0.1041376,0.02798378,172.17.160.76,10.64.29.0,2,unknown,2,2014-11-15 17:55:53.389,8,2014-11-15 17:52:35.410,3
