time,timestamp,recordtime,lat,long,alt,speed,course,verticalAccuracy,horizontalAccuracy,locTimeStamp,accelerationX,accelerationY,accelerationZ,HeadingX,HeadingY,HeadingZ,TrueHeading,MagneticHeading,HeadingAccuracy,RotationX,RotationY,RotationZ,motionYaw,motionRoll,motionPitch,motionRotationRateX,motionRotationRateY,motionRotationRateZ,motionUserAccelerationX,motionUserAccelerationY,motionUserAccelerationZ,en0,pdp_ip0,DeviceOrientation,Activity,Activity Confidence,Activity Start,Steps,Last Step Date,State
2014-11-15 17:55:55.151,7992,266.4,40.10464,-88.22195,235.7378,0.68,262.2656,12,10,1416095755,-0.1042938,0.7485199,0.3825836,-19.3236,46.87709,-14.20358,167.1588,170.2411,15,-0.2137658,0.7504314,0.02173592,-1.495472,-2.877774,-1.074384,0.09161833,0.7960274,0.1722,-0.08944093,-0.1584565,-0.09399659,172.17.160.76,10.64.29.0,2,unknown,2,2014-11-15 17:55:53.389,8,2014-11-15 17:52:35.410,3
2014-11-15 17:55:55.184,7993,266.4333,40.10464,-88.22195,235.7378,0.68,262.2656,12,10,1416095755,-0.02340698,0.8378448,0.3978729,-19.28928,46.56735,-14.64053,167.7451,170.8275,15,-0.286016,0.7189891,-0.06626211,-1.500112,-2.86554,-1.073608,-0.1467575,0.8174464,0.03839714,-0.009618849,-0.1561028,-0.09489998,172.17.160.76,10.64.29.0,2,unknown,2,2014-11-15 17:55:53.389,8,2014-11-15 17:52:35.410,3
2014-11-15 17:55:55.218,7994,266.4667,40.10464,-88.22195,235.7378,0.68,262.2656,12,10,1416095755,-0.1127777,0.9718933,0.5804596,-19.42659,46.77383,-15.44724,170.068,173.1503,15,-0.3429012,0.4554208,-0.3593446,-1.48492,-2.812174,-1.051493,-0.3269814,0.5509387,-0.3667843,0.1070445,0.03559782,0.01846121,172.17.160.76,10.64.29.0,2,unknown,2,2014-11-15 17:55:53.389,8,2014-11-15 17:52:35.410,3
2014-11-15 17:55:55.251,7995,266.5,40.10464,-88.22195,235.7378,0.68,262.2656,12,10,1416095755,-0.1805725,1.018906,0.6614075,-19.66687,46.32643,-15.81699,173.2334,176.3157,15,-0.2304162,0.3459404,-0.2159808,-1.476115,-2.794355,-1.044367,-0.2238812,0.4781983,-0.2836965,0.02482025,0.1292899,0.1289178,172.17.160.76,10.64.29.0,2,unknown,2,2014-11-15 17:55:53.389,8,2014-11-15 17:52:35.410,3
2014-11-15 17:55:55.284,7996,266.5334,40.10464,-88.22195,235.7378,0.68,262.2656,12,10,1416095755,-0.221405,0.8982391,0.6345215,-19.76985,46.36084,-15.98508,173.4205,176.5028,15,0.1397984,0.008622251,0.3073517,-1.473038,-2.778129,-1.043028,0.1827731,0.2117043,0.1931672,-0.04151149,0.1264994,0.2540254,172.17.160.76,10.64.29.0,2,unknown,2,2014-11-15 17:55:53.389,8,2014-11-15 17:52:35.410,3
2014-11-15 17:55:55.318,7997,266.5667,40.10464,-88.22195,235.7378,0.68,262.2656,12,10,1416095755,-0.1709747,0.8782196,0.5354767,-20.01012,45.98225,-16.82535,175.7385,178.8208,15,-0.06210385,-0.2297712,0.385402,-1.490214,-2.793442,-1.051455,0.08481182,-0.1435799,0.4177586,-0.02512202,0.009142695,0.1195116,172.17.160.76,10.64.29.0,2,unknown,2,2014-11-15 17:55:53.389,8,2014-11-15 17:52:35.410,3
2014-11-15 17:55:55.351,7998,266.6,40.10464,-88.22195,235.7378,0.68,262.2656,12,10,1416095755,-0.1507263,0.9121857,0.5840759,-19.39225,45.98225,-17.16153,175.6099,178.6922,15,0.002478338,0.1370021,0.273513,-1.512897,-2.816852,-1.054907,-0.03437037,-0.04612084,0.3709514,-0.0159129,0.03061249,0.062016,172.17.160.76,10.64.29.0,2,unknown,2,2014-11-15 17:55:53.389,8,2014-11-15 17:52:35.410,3
2014-11-15 17:55:55.384,7999,266.6334,40.10464,-88.22195,235.7378,0.68,262.2656,12,10,1416095755,-0.09202576,0.7942963,0.4678497,-19.08332,45.87901,-17.59848,174.0843,177.1666,15,0.05954775,0.3176001,0.1309503,-1.529198,-2.825948,-1.059252,0.1241273,0.3331246,0.2279933,0.001236412,0.04019601,0.1187359,172.17.160.76,10.64.29.0,2,unknown,2,2014-11-15 17:55:53.389,8,2014-11-15 17:52:35.410,3
2014-11-15 17:55:55.418,8000,266.6667,40.10464,-88.22195,235.7378,0.68,262.2656,12,10,1416095755,-0.0123291,0.8241577,0.46492,-18.08787,45.70694,-17.83371,174.319,177.4013,15,-0.1512108,0.1880842,-0.007996674,-1.536019,-2.820699,-1.064111,0.05516837,0.3238032,0.1146238,0.06103889,-0.08006176,0.007339938,172.17.160.76,10.64.29.0,2,unknown,2,2014-11-15 17:55:53.389,8,2014-11-15 17:52:35.410,3
2014-11-15 17:55:55.451,8001,266.7,40.10464,-88.22195,235.7378,0.68,262.2656,12,10,1416095755,-0.05152893,0.8725128,0.5339966,-17.46999,45.77576,-18.23703,175.407,178.4893,15,-0.01926611,0.2764622,-0.2574736,-1.536358,-2.809905,-1.061634,-0.05707029,0.3144955,-0.1408222,0.1464024,-0.0489954,0.004042675,172.17.160.76,10.64.29.0,2,unknown,2,2014-11-15 17:55:53.389,8,2014-11-15 17:52:35.410,3
2014-11-15 17:55:55.484,8002,266.7333,40.10464,-88.22195,235.7378,0.68,262.2656,12,10,1416095755,-0.01205444,0.9067535,0.5311127,-17.64163,45.67252,-18.20352,175.8857,178.968,15,0.02990304,0.1132286,-0.3423744,-1.522514,-2.787868,-1.060228,0.08300306,0.2974077,-0.2847369,0.1177445,4.574779e-05,0.07557786,172.17.160.76,10.64.29.0,2,unknown,2,2014-11-15 17:55:53.389,8,2014-11-15 17:52:35.410,3
2014-11-15 17:55:55.518,8003,266.7667,40.10464,-88.22195,235.7378,0.68,262.2656,12,10,1416095755,-0.09771729,0.9175568,0.4816132,-17.95057,45.63812,-18.03543,175.5817,178.664,15,0.0468964,-0.5972373,-0.1487437,-1.490038,-2.76446,-1.059341,0.1003329,-0.4288061,-0.2068921,0.1480001,0.03943517,0.05007672,172.17.160.76,10.64.29.0,2,unknown,2,2014-11-15 17:55:53.389,8,2014-11-15 17:52:35.410,3
2014-11-15 17:55:55.551,8004,266.8,40.10464,-88.22195,235.7378,0.68,262.2656,12,10,1416095755,-0.1588898,0.8911591,0.4603424,-18.60276,45.3972,-17.80014,175.3467,178.429,15,0.1188702,-0.792928,-0.02691177,-1.481843,-2.774824,-1.061983,0.1614435,-0.6718935,-0.03007215,0.02567221,0.03220982,0.01051354,172.17.160.76,10.64.29.0,2,unknown,2,2014-11-15 17:55:53.389,8,2014-11-15 17:52:35.410,3
2014-11-15 17:55:55.584,8005,266.8333,40.10464,-88.22195,235.7378,0.68,262.2656,12,10,1416095755,-0.1924286,0.8644257,0.4643097,-18.67141,45.53485,-17.66568,174.0395,177.1218,15,0.1540495,-0.8451089,-0.04005607,-1.478909,-2.786995,-1.065467,0.2071511,-0.7631409,-0.009493721,0.001625814,0.003021157,0.003831542,172.17.160.76,10.64.29.0,2,unknown,2,2014-11-15 17:55:53.389,8,2014-11-15 17:52:35.410,3
2014-11-15 17:55:55.618,8006,266.8667,40.10464,-88.22195,235.7378,0.68,262.2656,12,10,1416095755,-0.2355347,0.8473969,0.4489288,-18.80872,45.05302,-17.66562,172.6377,175.72,15,0.200201,-0.7043172,-0.1074223,-1.468169,-2.807305,-1.073833,0.267141,-0.6787304,-0.08463921,-0.05092916,-0.01494462,0.0181086,172.17.160.76,10.64.29.0,2,unknown,2,2014-11-15 17:55:53.389,8,2014-11-15 17:52:35.410,3
2014-11-15 17:55:55.650,8007,266.9,40.10464,-88.22195,235.7378,0.68,262.2656,12,10,1416095755,-0.2504578,0.814682,0.3677063,-19.01468,44.91536,-17.3967,169.6913,172.7736,15,0.05732295,-0.5593964,-0.06154193,-1.458098,-2.816494,-1.079968,0.1989796,-0.5425959,-0.07199088,-0.08991062,-0.04768363,-0.02610384,172.17.160.76,10.64.29.0,2,unknown,2,2014-11-15 17:55:53.389,8,2014-11-15 17:52:35.410,3
2014-11-15 17:55:55.684,8008,266.9333,40.10464,-88.22195,235.7378,0.68,262.2656,12,10,1416095755,-0.2958832,0.8961487,0.4148712,-19.3236,44.94978,-17.29587,168.7462,171.8285,15,-0.1785567,-0.1008022,0.1487453,-1.457403,-2.831668,-1.080613,-0.1092874,-0.2332734,0.06560042,-0.1261302,-0.04112096,-0.08863195,172.17.160.76,10.64.29.0,2,unknown,2,2014-11-15 17:55:53.389,8,2014-11-15 17:52:35.410,3
2014-11-15 17:55:55.718,8009,266.9667,40.10464,-88.22195,235.7378,0.68,262.2656,12,10,1416095755,-0.290329,0.8896484,0.4989929,-19.73551,45.50044,-16.89255,167.912,170.9943,15,-0.0390478,0.0549229,0.2360844,-1.468597,-2.843353,-1.078798,-0.09458338,0.03129047,0.2059926,-0.1730992,0.01866435,-0.007748117,172.17.160.76,10.64.29.0,2,unknown,2,2014-11-15 17:55:53.389,8,2014-11-15 17:52:35.410,3
2014-11-15 17:55:55.751,8010,267,40.10464,-88.22195,235.7378,0.68,262.2656,12,10,1416095755,-0.1512756,0.8005676,0.5197449,-19.70118,45.53485,-16.79172,168.2244,171.3067,15,0.04873452,0.1401989,0.1364255,-1.483145,-2.852791,-1.081138,0.08131827,0.1610792,0.2378617,-0.1245643,-0.007295304,0.06651829,172.17.160.76,10.64.29.0,2,unknown,2,2014-11-15 17:55:53.389,8,2014-11-15 17:52:35.410,3
2014-11-15 17:55:55.784,8011,267.0334,40.10464,-88.22195,235.7378,0.68,262.2656,12,10,1416095755,-0.07789612,0.7861328,0.4805603,-19.11763,45.56927,-17.09427,168.6147,171.697,15,-0.02649819,0.06776413,-0.03351136,-1.49119,-2.853919,-1.085722,0.1062808,0.2057358,0.1021336,-0.01898339,-0.08407281,0.07263184,172.17.160.76,10.64.29.0,2,unknown,2,2014-11-15 17:55:53.389,8,2014-11-15 17:52:35.410,3
2014-11-15 17:55:55.818,8012,267.0667,40.10464,-88.22195,235.7378,0.68,262.2656,12,10,1416095755,-0.0006866455,0.9116058,0.4053955,-18.84304,45.70694,-17.22879,169.3624,172.4447,15,-0.1698854,-0.08998822,-0.249286,-1.48414,-2.842777,-1.085281,-0.07313448,0.002740375,-0.1976016,0.1239373,-0.008290391,-0.02571118,172.17.160.76,10.64.29.0,2,unknown,2,2014-11-15 17:55:53.389,8,2014-11-15 17:52:35.410,3
2014-11-15 17:55:55.850,8013,267.1,40.10464,-88.22195,235.7378,0.68,262.2656,12,10,1416095755,-0.02796936,0.9921417,0.4030609,-18.6714,46.01668,-17.12796,169.9186,173.0009,15,-0.1785578,-0.1662755,-0.2209952,-1.472102,-2.833292,-1.079902,-0.1327953,-0.06865618,-0.2285372,0.1261241,0.08467158,-0.05454966,172.17.160.76,10.64.29.0,2,unknown,2,2014-11-15 17:55:53.389,8,2014-11-15 17:52:35.410,3
2014-11-15 17:55:55.884,8014,267.1334,40.10464,-88.22195,235.7378,0.68,262.2656,12,10,1416095755,-0.04167175,1.038818,0.4911346,-19.15197,46.29201,-16.8591,169.1316,172.2139,15,-0.028409,-0.1403848,-0.1598552,-1.465378,-2.829267,-1.076897,-0.05195291,-0.09273728,-0.1758928,0.1165527,0.1372091,-0.01481849,172.17.160.76,10.64.29.0,2,unknown,2,2014-11-15 17:55:53.389,8,2014-11-15 17:52:35.410,3
2014-11-15 17:55:55.918,8015,267.1667,40.10464,-88.22195,235.7378,0.68,262.2656,12,10,1416095755,-0.05041504,0.8994751,0.4357452,-19.80416,46.32643,-16.48923,168.1181,171.2004,15,0.2312982,-0.2714944,-0.05749286,-1.453026,-2.822,-1.080947,0.2696054,-0.1419541,-0.05953166,0.09061453,0.09539483,0.03996433,172.17.160.76,10.64.29.0,2,unknown,2,2014-11-15 17:55:53.389,8,2014-11-15 17:52:35.410,3
2014-11-15 17:55:55.950,8016,267.2,40.10464,-88.22195,235.7378,0.68,262.2656,12,10,1416095755,-0.03329468,0.8581848,0.4179077,-19.97579,46.08551,-16.85904,167.9607,171.043,15,0.1917596,-0.4266704,-0.06559233,-1.447446,-2.821568,-1.086275,0.2886161,-0.2809809,-0.03592093,0.09611604,0.0145769,-0.00639028,172.17.160.76,10.64.29.0,2,unknown,2,2014-11-15 17:55:53.389,8,2014-11-15 17:52:35.410,3
2014-11-15 17:55:55.984,8017,267.2333,40.10464,-88.22195,235.7378,0.68,262.2656,12,10,1416095755,-0.1134186,0.8630066,0.4398499,-20.35337,45.8446,-16.55649,166.2461,169.3284,15,0.08632477,-0.7632945,-0.1858561,-1.443319,-2.838017,-1.095292,0.1735732,-0.5717985,-0.1399662,0.09857891,-0.02868006,-0.02022771,172.17.160.76,10.64.29.0,2,unknown,2,2014-11-15 17:55:53.389,8,2014-11-15 17:52:35.410,3
2014-11-15 17:55:56.018,8018,267.2667,40.10464,-88.22195,235.7378,0.68,262.2656,12,10,1416095755,-0.2268982,0.8762207,0.500473,-20.73096,45.25952,-16.52298,163.8556,166.9379,15,0.1509871,-0.7666665,-0.0651071,-1.426805,-2.851337,-1.099333,0.1648611,-0.754451,-0.1260338,-0.01832727,-0.02888972,0.0228156,172.17.160.76,10.64.29.0,2,unknown,2,2014-11-15 17:55:53.389,8,2014-11-15 17:52:35.410,3
2014-11-15 17:55:56.050,8019,267.3,40.10464,-88.22195,235.7378,0.68,262.2656,12,10,1416095755,-0.2585907,0.8827057,0.4698639,-21.34882,45.32835,-15.78348,161.36,164.4423,15,0.187147,-0.6429755,-0.005148157,-1.417708,-2.864044,-1.104089,0.239232,-0.6537878,-0.01751496,-0.103613,-0.01683387,0.06774412,172.17.160.76,10.64.29.0,2,unknown,2,2014-11-15 17:55:53.389,8,2014-11-15 17:52:35.410,3
2014-11-15 17:55:56.084,8020,267.3333,40.10464,-88.22195,235.7378,0.68,262.2656,12,10,1416095755,-0.2470093,0.8414154,0.4358521,-21.21151,45.32835,-15.85068,160.6451,163.7274,15,0.1392724,-0.473926,0.00547466,-1.413715,-2.878009,-1.111416,0.2477465,-0.535588,0.01704292,-0.1430682,-0.01362177,0.04178489,172.17.160.76,10.64.29.0,2,unknown,2,2014-11-15 17:55:53.389,8,2014-11-15 17:52:35.410,3
2014-11-15 17:55:56.118,8021,267.3667,40.10465,-88.22196,235.8243,1,298.8281,12,10,1416095756,-0.2006378,0.8442841,0.4220734,-21.21151,45.53485,-15.44736,159.0647,162.147,15,0.04890469,-0.2126087,-0.009794574,-1.410823,-2.890612,-1.119227,0.146728,-0.2306433,0.009473549,-0.1285318,-0.06181191,0.006356175,172.17.160.76,10.64.29.0,2,unknown,2,2014-11-15 17:55:53.389,8,2014-11-15 17:52:35.410,3
2014-11-15 17:55:56.151,8022,267.4,40.10465,-88.22196,235.8243,1,298.8281,12,10,1416095756,-0.1815186,0.8280029,0.417572,-21.00557,45.87901,-15.3129,159.0574,162.1397,15,-0.07046565,-0.06783551,0.01795184,-1.410217,-2.893281,-1.122355,0.02317908,-0.009433253,0.02808463,-0.07943414,-0.06622405,-0.005255179,172.17.160.76,10.64.29.0,2,unknown,2,2014-11-15 17:55:53.389,8,2014-11-15 17:52:35.410,3
2014-11-15 17:55:56.184,8023,267.4333,40.10465,-88.22196,235.8243,1,298.8281,12,10,1416095756,-0.170105,0.8331146,0.4244232,-20.86826,45.74135,-15.17844,159.5881,162.6704,15,-0.1418112,-0.04990338,-0.003977697,-1.412763,-2.895485,-1.121993,-0.05035891,0.009713939,0.02633777,-0.06955414,-0.07975411,0.002190124,172.17.160.76,10.64.29.0,2,unknown,2,2014-11-15 17:55:53.389,8,2014-11-15 17:52:35.410,3
2014-11-15 17:55:56.218,8024,267.4667,40.10465,-88.22196,235.8243,1,298.8281,12,10,1416095756,-0.1632996,0.8742065,0.4463348,-20.55931,46.05109,-15.27921,160.5163,163.5986,15,-0.183283,-0.004366519,-0.02693521,-1.414082,-2.896274,-1.120467,-0.09930653,0.03074868,-0.002056156,-0.06439494,-0.06718926,0.002193067,172.17.160.76,10.64.29.0,2,unknown,2,2014-11-15 17:55:53.389,8,2014-11-15 17:52:35.410,3
2014-11-15 17:55:56.251,8025,267.5,40.10465,-88.22196,235.8243,1,298.8281,12,10,1416095756,-0.165863,0.900528,0.4588318,-20.38769,45.60367,-15.4473,161.2889,164.3712,15,-0.139592,0.1808957,0.02588939,-1.407758,-2.884211,-1.112544,-0.1045566,0.1827747,0.007236324,-0.05148503,-0.003409511,0.02382009,172.17.160.76,10.64.29.0,2,unknown,2,2014-11-15 17:55:53.389,8,2014-11-15 17:52:35.410,3
2014-11-15 17:55:56.285,8026,267.5334,40.10465,-88.22196,235.8243,1,298.8281,12,10,1416095756,-0.1520996,0.883667,0.4521179,-20.62798,45.63809,-15.48099,161.3913,164.4736,15,-0.1279244,0.2002005,0.05036144,-1.40418,-2.87521,-1.10887,-0.07263631,0.2478463,0.04247513,-0.04941211,0.007087173,0.03006756,172.17.160.76,10.64.29.0,2,unknown,2,2014-11-15 17:55:53.389,8,2014-11-15 17:52:35.410,3
2014-11-15 17:55:56.318,8027,267.5667,40.10465,-88.22196,235.8243,1,298.8281,12,10,1416095756,-0.09890747,0.8939972,0.4333191,-20.76529,45.15625,-15.81711,161.9456,165.0279,15,-0.1556732,0.2013568,0.06108626,-1.409728,-2.868305,-1.10536,-0.06640094,0.2844296,0.1031399,-0.02074221,-0.01752707,0.02093751,172.17.160.76,10.64.29.0,2,unknown,2,2014-11-15 17:55:53.389,8,2014-11-15 17:52:35.410,3
2014-11-15 17:55:56.351,8028,267.6,40.10465,-88.22196,235.8243,1,298.8281,12,10,1416095756,-0.08209229,0.8908539,0.4141235,-20.45634,45.32835,-16.254,162.8466,165.929,15,-0.1812204,0.1842401,0.04410807,-1.418044,-2.868005,-1.103095,-0.1014889,0.2575924,0.06491856,0.01048193,-0.003034802,0.008345189,172.17.160.76,10.64.29.0,2,unknown,2,2014-11-15 17:55:53.389,8,2014-11-15 17:52:35.410,3
2014-11-15 17:55:56.384,8029,267.6334,40.10465,-88.22196,235.8243,1,298.8281,12,10,1416095756,-0.07174683,0.9085388,0.4311829,-20.45634,45.12186,-16.254,163.0677,166.15,15,-0.184381,0.1958584,0.03462775,-1.432479,-2.869204,-1.099744,-0.1228098,0.2576066,0.06606914,0.03871955,-0.001305401,-0.02367068,172.17.160.76,10.64.29.0,2,unknown,2,2014-11-15 17:55:53.389,8,2014-11-15 17:52:35.410,3
2014-11-15 17:55:56.418,8030,267.6667,40.10465,-88.22196,235.8243,1,298.8281,12,10,1416095756,-0.05326843,0.9102936,0.4581757,-20.31903,45.12186,-16.11954,163.4166,166.4989,15,-0.1063403,0.1282046,-0.05518522,-1.44237,-2.8718,-1.0983,-0.06822415,0.2378704,-0.01065292,0.05787055,0.02811368,0.006115647,172.17.160.76,10.64.29.0,2,unknown,2,2014-11-15 17:55:53.389,8,2014-11-15 17:52:35.410,3
2014-11-15 17:55:56.452,8031,267.7,40.10465,-88.22196,235.8243,1,298.8281,12,10,1416095756,-0.08111572,0.8942566,0.4427338,-21.10853,44.88094,-16.35483,163.3813,166.4636,15,-0.07336503,-0.07071012,-0.08183175,-1.445871,-2.87185,-1.097382,0.004281904,0.02699079,-0.07040172,0.06423099,0.01403596,0.01833773,172.17.160.76,10.64.29.0,2,unknown,2,2014-11-15 17:55:53.389,8,2014-11-15 17:52:35.410,3
2014-11-15 17:55:56.484,8032,267.7333,40.10465,-88.22196,235.8243,1,298.8281,12,10,1416095756,-0.1317139,0.9065094,0.41185,-20.7996,45.32835,-16.38852,163.4964,166.5787,15,-0.09696863,-0.1129068,-0.04269074,-1.444164,-2.871224,-1.097442,-0.02144686,-0.03864,-0.03880265,0.01824253,0.004044808,-0.0109387,172.17.160.76,10.64.29.0,2,unknown,2,2014-11-15 17:55:53.389,8,2014-11-15 17:52:35.410,3
2014-11-15 17:55:56.518,8033,267.7667,40.10465,-88.22196,235.8243,1,298.8281,12,10,1416095756,-0.1549835,0.9440002,0.4582214,-20.76528,45.56924,-16.28769,163.4319,166.5142,15,-0.1321831,-0.1202556,-0.03304424,-1.443574,-2.871644,-1.096699,-0.04071936,-0.05119814,-0.01438259,-0.009964115,0.01680402,-0.02815154,172.17.160.76,10.64.29.0,2,unknown,2,2014-11-15 17:55:53.389,8,2014-11-15 17:52:35.410,3
2014-11-15 17:55:56.551,8034,267.8,40.10465,-88.22196,235.8243,1,298.8281,12,10,1416095756,-0.2321777,1.047424,0.5886078,-19.94145,45.91339,-15.54825,164.0917,167.174,15,-0.2913653,-0.1832052,0.0638152,-1.443712,-2.87407,-1.092203,-0.2210391,-0.1081991,0.0242022,-0.04034083,0.08672173,0.02991047,172.17.160.76,10.64.29.0,2,unknown,2,2014-11-15 17:55:53.389,8,2014-11-15 17:52:35.410,3
2014-11-15 17:55:56.584,8035,267.8333,40.10465,-88.22196,235.8243,1,298.8281,12,10,1416095756,-0.3492279,0.9966888,0.644989,-20.11309,45.60365,-15.38016,163.8927,166.975,15,0.06663575,0.1306339,0.5609009,-1.463057,-2.892812,-1.088472,0.003031308,0.1035852,0.365214,-0.1715133,0.1713926,0.2346908,172.17.160.76,10.64.29.0,2,unknown,2,2014-11-15 17:55:53.389,8,2014-11-15 17:52:35.410,3
2014-11-15 17:55:56.618,8036,267.8667,40.10465,-88.22196,235.8243,1,298.8281,12,10,1416095756,-0.06689453,0.6340485,0.3170319,-19.15195,45.466,-15.44736,164.0125,167.0948,15,0.09935029,0.7686101,0.4802809,-1.495206,-2.915348,-1.095621,0.1421995,0.3048739,0.5769877,-0.180807,0.04697512,0.08604043,172.17.160.76,10.64.29.0,2,unknown,2,2014-11-15 17:55:53.389,8,2014-11-15 17:52:35.410,3
2014-11-15 17:55:56.651,8037,267.9,40.10465,-88.22196,235.8243,1,298.8281,12,10,1416095756,-0.03016663,0.5117035,0.4224091,-18.22515,45.50041,-16.01877,163.4688,166.5511,15,0.1744062,0.7547191,0.3334422,-1.525572,-2.919794,-1.103927,0.2049623,1.02857,0.4521242,0.03211896,-0.2589334,-0.122035,172.17.160.76,10.64.29.0,2,unknown,2,2014-11-15 17:55:53.389,8,2014-11-15 17:52:35.410,3
2014-11-15 17:55:56.684,8038,267.9333,40.10465,-88.22196,235.8243,1,298.8281,12,10,1416095756,0.06806946,0.782074,0.4109039,-17.53862,45.77573,-16.69101,164.4788,167.5611,15,0.2178303,-0.09627061,0.2109738,-1.545558,-2.912453,-1.113492,0.2829219,0.529955,0.2793694,0.07012267,-0.3855427,-0.007580872,172.17.160.76,10.64.29.0,2,unknown,2,2014-11-15 17:55:53.389,8,2014-11-15 17:52:35.410,3
2014-11-15 17:55:56.718,8039,267.9667,40.10465,-88.22196,235.8243,1,298.8281,12,10,1416095756,-0.05871582,1.05777,0.530304,-17.26402,46.46405,-16.89267,165.2277,168.31,15,0.1392455,-0.6926306,0.3121528,-1.568246,-2.941101,-1.129242,0.2169222,-0.5843544,0.3172692,0.006004625,0.1534066,0.07964338,172.17.160.76,10.64.29.0,2,unknown,2,2014-11-15 17:55:53.389,8,2014-11-15 17:52:35.410,3
2014-11-15 17:55:56.751,8040,268,40.10465,-88.22196,235.8243,1,298.8281,12,10,1416095756,-0.09211731,0.9884796,0.4740448,-17.16105,46.29198,-17.46414,163.3818,166.4641,15,0.1777532,-0.5460588,0.3064116,-1.58155,-2.96527,-1.134512,0.2041108,-0.5704626,0.3269436,0.0351071,0.1287517,0.09293436,172.17.160.76,10.64.29.0,2,unknown,2,2014-11-15 17:55:53.389,8,2014-11-15 17:52:35.410,3
2014-11-15 17:55:56.784,8041,268.0334,40.10465,-88.22196,235.8243,1,298.8281,12,10,1416095756,-0.1482544,0.8861389,0.4171448,-16.85211,46.18874,-17.09439,161.9865,165.0688,15,0.2327384,-0.1952438,0.1912901,-1.605721,-3.002947,-1.147655,0.3228971,-0.2352436,0.2613905,-0.08967398,0.003021793,0.05092494,172.17.160.76,10.64.29.0,2,unknown,2,2014-11-15 17:55:53.389,8,2014-11-15 17:52:35.410,3
2014-11-15 17:55:56.818,8042,268.0667,40.10465,-88.22196,235.8243,1,298.8281,12,10,1416095756,-0.2073212,0.8454437,0.3676605,-16.06261,45.879,-17.12802,160.2155,163.2978,15,0.1000717,0.1653083,0.0875373,-1.615009,-3.012361,-1.152804,0.221231,0.114394,0.1213702,-0.09678094,-0.04508552,-0.06640574,172.17.160.76,10.64.29.0,2,unknown,2,2014-11-15 17:55:53.389,8,2014-11-15 17:52:35.410,3
2014-11-15 17:55:56.850,8043,268.1,40.10465,-88.22196,235.8243,1,298.8281,12,10,1416095756,-0.1716919,0.9161835,0.5720062,-15.6507,46.08548,-17.12802,160.606,163.6883,15,0.1169146,0.3744964,0.2117077,-1.619208,-3.011089,-1.15613,0.1180375,0.3321508,0.1059195,-0.1548926,-0.06980719,-0.03179786,172.17.160.76,10.64.29.0,2,unknown,2,2014-11-15 17:55:53.389,8,2014-11-15 17:52:35.410,3
2014-11-15 17:55:56.884,8044,268.1334,40.10465,-88.22196,235.8243,1,298.8281,12,10,1416095756,-0.02813721,1.173508,0.345993,-15.44474,46.22314,-18.00198,162.4183,165.5006,15,0.1892253,0.7288901,0.00843716,-1.624633,-2.995553,-1.156996,0.1830065,0.5738714,0.1780444,-0.03836526,0.06972169,0.1050265,172.17.160.76,10.64.29.0,2,unknown,2,2014-11-15 17:55:53.389,8,2014-11-15 17:52:35.410,3
2014-11-15 17:55:56.918,8045,268.1667,40.10465,-88.22196,235.8243,1,298.8281,12,10,1416095756,-0.05461121,0.973587,0.5014343,-14.86119,45.91339,-19.31284,163.8995,166.9818,15,0.3871025,0.6595542,0.1262171,-1.625104,-2.964889,-1.168802,0.4116732,0.8226134,0.06491928,-0.0225774,0.1638699,0.04792771,172.17.160.76,10.64.29.0,2,unknown,2,2014-11-15 17:55:53.389,8,2014-11-15 17:52:35.410,3
2014-11-15 17:55:56.951,8046,268.2,40.10465,-88.22196,235.8243,1,298.8281,12,10,1416095756,-0.005447388,1.073288,0.2704773,-14.14035,45.39717,-20.08591,166.2364,169.3187,15,0.4448113,0.7368876,0.09880967,-1.628396,-2.945307,-1.182568,0.4626361,0.7805227,0.1228882,0.01921612,0.04800572,0.1301544,172.17.160.76,10.64.29.0,2,unknown,2,2014-11-15 17:55:53.389,8,2014-11-15 17:52:35.410,3
2014-11-15 17:55:56.984,8047,268.2333,40.10465,-88.22196,235.8243,1,298.8281,12,10,1416095756,-0.02883911,0.8763733,0.2922211,-13.52249,45.19066,-20.62369,167.4232,170.5055,15,0.486077,0.6301194,0.1745196,-1.628801,-2.929549,-1.192361,0.5117147,0.8038193,0.1153967,0.07351542,0.1494459,-0.03743146,172.17.160.76,10.64.29.0,2,unknown,2,2014-11-15 17:55:53.389,8,2014-11-15 17:52:35.410,3
2014-11-15 17:55:57.018,8048,268.2667,40.10465,-88.22196,235.8243,1,298.8281,12,10,1416095756,0.03163147,1.122009,0.3574982,-12.90462,44.91533,-21.90103,169.1727,172.255,15,0.4742232,0.3674869,0.1498284,-1.642996,-2.903425,-1.225893,0.5005618,0.5463547,0.2128002,0.09331673,0.1165091,0.05031411,172.17.160.76,10.64.29.0,2,unknown,2,2014-11-15 17:55:53.389,8,2014-11-15 17:52:35.410,3
2014-11-15 17:55:57.051,8049,268.3,40.10465,-88.22196,235.8243,1,298.8281,12,10,1416095756,-0.002182007,1.023544,0.3342133,-12.04647,44.05493,-22.80862,170.1824,173.2647,15,0.6171317,0.2459115,0.09982487,-1.641441,-2.890588,-1.244079,0.6617312,0.3105122,0.08782278,0.1078503,0.1518216,-0.001597947,172.17.160.76,10.64.29.0,2,unknown,2,2014-11-15 17:55:53.389,8,2014-11-15 17:52:35.410,3
2014-11-15 17:55:57.084,8050,268.3333,40.10465,-88.22196,235.8243,1,298.8281,12,10,1416095756,-0.03634644,0.8609009,0.2273254,-11.46292,43.74519,-23.31277,170.8499,173.9322,15,0.5762066,0.1458315,0.2119682,-1.638647,-2.881731,-1.258061,0.6966386,0.3058524,0.1768319,0.03579431,-0.01430074,0.04026787,172.17.160.76,10.64.29.0,2,unknown,2,2014-11-15 17:55:53.389,8,2014-11-15 17:52:35.410,3
2014-11-15 17:55:57.117,8051,268.3667,40.10468,-88.22196,235.7435,1.08,332.5781,12,10,1416095757,-0.1064453,0.8611145,0.1396637,-11.05103,43.3322,-23.91782,170.849,173.9313,15,0.3717533,-0.03243144,0.0907861,-1.642965,-2.877903,-1.284373,0.5377355,0.0952885,0.1434121,0.04534824,-0.1294874,-0.1704631,172.17.160.76,10.64.29.0,2,unknown,2,2014-11-15 17:55:53.389,8,2014-11-15 17:52:35.410,3
2014-11-15 17:55:57.151,8052,268.4,40.10468,-88.22196,235.7435,1.08,332.5781,12,10,1416095757,-0.05012512,0.9812164,0.339798,-10.91372,43.1257,-23.98502,170.5356,173.6179,15,0.2271146,0.2531532,0.04931083,-1.627085,-2.856066,-1.299682,0.2940179,0.3200904,0.06588296,-0.05275826,-0.06209069,0.02651531,172.17.160.76,10.64.29.0,2,unknown,2,2014-11-15 17:55:53.389,8,2014-11-15 17:52:35.410,3
2014-11-15 17:55:57.184,8053,268.4333,40.10468,-88.22196,235.7435,1.08,332.5781,12,10,1416095757,-0.02340698,0.8900452,0.1457825,-10.43316,42.85037,-24.05228,170.5969,173.6792,15,0.2964391,0.148712,0.01241086,-1.628088,-2.845455,-1.309856,0.3857707,0.3730831,0.05414687,0.03703469,0.03316561,0.05241971,172.17.160.76,10.64.29.0,2,unknown,2,2014-11-15 17:55:53.389,8,2014-11-15 17:52:35.410,3
2014-11-15 17:55:57.218,8054,268.4667,40.10468,-88.22196,235.7435,1.08,332.5781,12,10,1416095757,-0.08062744,0.8894806,0.3427887,-9.300388,42.05881,-23.95145,172.2432,175.3255,15,0.1502159,0.02146455,0.03776389,-1.619139,-2.82954,-1.320486,0.2993393,0.1688742,0.0257714,0.03588724,-0.1367891,-0.1283351,172.17.160.76,10.64.29.0,2,unknown,2,2014-11-15 17:55:53.389,8,2014-11-15 17:52:35.410,3
2014-11-15 17:55:57.251,8055,268.5,40.10468,-88.22196,235.7435,1.08,332.5781,12,10,1416095757,-0.01080322,0.923645,0.1854706,-8.922802,41.54256,-24.25394,172.5008,175.5831,15,0.1874793,-0.05188956,0.03511511,-1.616886,-2.824819,-1.32526,0.2171051,0.088373,0.05431536,0.004612807,-0.1218016,0.03595512,172.17.160.76,10.64.29.0,2,unknown,2,2014-11-15 17:55:53.389,8,2014-11-15 17:52:35.410,3
2014-11-15 17:55:57.284,8056,268.5334,40.10468,-88.22196,235.7435,1.08,332.5781,12,10,1416095757,-0.1163025,0.8110352,0.124527,-8.579536,41.26723,-24.85892,172.9072,175.9895,15,0.02996083,-0.05671628,-0.05136199,-1.603089,-2.812933,-1.33503,0.1981783,-0.06451269,-0.07167386,0.06459307,-0.0486907,-0.03561459,172.17.160.76,10.64.29.0,2,unknown,2,2014-11-15 17:55:53.389,8,2014-11-15 17:52:35.410,3
2014-11-15 17:55:57.318,8057,268.5667,40.10468,-88.22196,235.7435,1.08,332.5781,12,10,1416095757,-0.006256104,0.9397583,0.2426453,-8.785496,40.99188,-25.06058,172.2554,175.3377,15,-0.07543004,0.04835821,-0.07376663,-1.592255,-2.80142,-1.337667,-0.003316287,0.09955554,-0.02653476,-0.04904804,-0.06469921,0.1816897,172.17.160.76,10.64.29.0,2,unknown,2,2014-11-15 17:55:53.389,8,2014-11-15 17:52:35.410,3
2014-11-15 17:55:57.351,8058,268.6,40.10468,-88.22196,235.7435,1.08,332.5781,12,10,1416095757,0.02180481,0.8548584,-0.02427673,-9.128757,41.12956,-24.92618,171.7995,174.8818,15,-0.1434999,-0.08614261,-0.1602001,-1.576428,-2.783096,-1.338253,0.01396629,0.01700713,-0.1225677,0.1144889,-0.08854657,-0.1890845,172.17.160.76,10.64.29.0,2,unknown,2,2014-11-15 17:55:53.389,8,2014-11-15 17:52:35.410,3
2014-11-15 17:55:57.384,8059,268.6334,40.10468,-88.22196,235.7435,1.08,332.5781,12,10,1416095757,-0.09169006,0.912796,0.3387909,-9.025768,41.64581,-25.09421,172.3004,175.3827,15,-0.2446042,-0.1173948,-0.2247364,-1.562069,-2.77038,-1.333454,-0.1575305,-0.06523116,-0.189232,0.01248898,-0.1902433,-0.1806686,172.17.160.76,10.64.29.0,2,unknown,2,2014-11-15 17:55:53.389,8,2014-11-15 17:52:35.410,3
2014-11-15 17:55:57.418,8060,268.6667,40.10468,-88.22196,235.7435,1.08,332.5781,12,10,1416095757,-0.0009460449,0.9711761,0.2500458,-9.334705,42.09322,-25.59836,172.6811,175.7634,15,-0.2668804,-0.1357594,-0.2661475,-1.550954,-2.760791,-1.328384,-0.2107045,-0.07617435,-0.2347343,-0.002473929,-0.05796581,0.1159413,172.17.160.76,10.64.29.0,2,unknown,2,2014-11-15 17:55:53.389,8,2014-11-15 17:52:35.410,3
2014-11-15 17:55:57.451,8061,268.7,40.10468,-88.22196,235.7435,1.08,332.5781,12,10,1416095757,-0.02285767,0.8477325,0.1253052,-9.231724,41.85231,-25.56479,173.2476,176.3299,15,-0.350051,-0.3549813,-0.3158187,-1.523054,-2.73594,-1.321067,-0.04339701,-0.1101659,-0.2228022,0.1127245,-0.06672715,-0.1477697,172.17.160.76,10.64.29.0,2,unknown,2,2014-11-15 17:55:53.389,8,2014-11-15 17:52:35.410,3
2014-11-15 17:55:57.485,8062,268.7333,40.10468,-88.22196,235.7435,1.08,332.5781,12,10,1416095757,-0.05369568,0.9837189,0.3186951,-10.22717,41.19841,-25.06064,172.5225,175.6048,15,-0.4809259,-0.4258064,-0.4165424,-1.509605,-2.727573,-1.315441,-0.2831648,-0.2880759,-0.2992679,0.1164615,-0.1497788,-0.2466291,172.17.160.76,10.64.29.0,2,unknown,2,2014-11-15 17:55:53.389,8,2014-11-15 17:52:35.410,3
2014-11-15 17:55:57.518,8063,268.7667,40.10468,-88.22196,235.7435,1.08,332.5781,12,10,1416095757,-0.07141113,0.9116516,0.181366,-11.29128,40.9575,-24.28757,172.0331,175.1154,15,-0.3563083,-0.4979818,-0.3982824,-1.470659,-2.707144,-1.291926,-0.2286668,-0.3373989,-0.354929,0.01887932,0.02305388,0.02489896,172.17.160.76,10.64.29.0,2,unknown,2,2014-11-15 17:55:53.389,8,2014-11-15 17:52:35.410,3
2014-11-15 17:55:57.551,8064,268.8,40.10468,-88.22196,235.7435,1.08,332.5781,12,10,1416095757,-0.07991028,0.9703369,0.3461304,-11.87482,41.61139,-24.4556,172.0852,175.1675,15,-0.4393031,-0.500465,-0.4510588,-1.454977,-2.700011,-1.28439,-0.2894231,-0.4310774,-0.3817319,0.03595721,-0.03580336,-0.1143556,172.17.160.76,10.64.29.0,2,unknown,2,2014-11-15 17:55:53.389,8,2014-11-15 17:52:35.410,3
2014-11-15 17:55:57.584,8065,268.8333,40.10468,-88.22196,235.7435,1.08,332.5781,12,10,1416095757,-0.07470703,0.9030609,0.15979,-13.14488,41.71465,-23.74973,171.403,174.4854,15,-0.4786603,-0.5379239,-0.489322,-1.421895,-2.684895,-1.261355,-0.4319406,-0.4062951,-0.4861546,0.05438181,0.01783298,0.0728139,172.17.160.76,10.64.29.0,2,unknown,2,2014-11-15 17:55:53.389,8,2014-11-15 17:52:35.410,3
2014-11-15 17:55:57.618,8066,268.8667,40.10468,-88.22196,235.7435,1.08,332.5781,12,10,1416095757,-0.08720398,0.8838196,0.3410339,-14.00303,41.74905,-22.90939,171.8413,174.9236,15,-0.7821392,-0.7036577,-0.6461577,-1.384234,-2.675029,-1.227628,-0.6577598,-0.6174408,-0.6010611,0.1038209,-0.112256,-0.06656256,172.17.160.76,10.64.29.0,2,unknown,2,2014-11-15 17:55:53.389,8,2014-11-15 17:52:35.410,3
2014-11-15 17:55:57.651,8067,268.9,40.10468,-88.22196,235.7435,1.08,332.5781,12,10,1416095757,-0.1339264,0.9614105,0.273468,-14.55223,41.74904,-22.16989,171.7942,174.8765,15,-0.8215916,-0.7525896,-0.655821,-1.363769,-2.676017,-1.199083,-0.773882,-0.7123302,-0.6510158,0.03815132,0.04185021,0.03196828,172.17.160.76,10.64.29.0,2,unknown,2,2014-11-15 17:55:53.389,8,2014-11-15 17:52:35.410,3
2014-11-15 17:55:57.684,8068,268.9333,40.10468,-88.22196,235.7435,1.08,332.5781,12,10,1416095757,-0.1319122,0.7903442,0.3031921,-16.09692,42.05878,-21.32956,171.8139,174.8962,15,-0.8940567,-0.7504921,-0.6640304,-1.34573,-2.679197,-1.170462,-0.7664559,-0.6451747,-0.62203,0.05440832,-0.0779286,-0.1673571,172.17.160.76,10.64.29.0,2,unknown,2,2014-11-15 17:55:53.389,8,2014-11-15 17:52:35.410,3
2014-11-15 17:55:57.718,8069,268.9667,40.10468,-88.22196,235.7435,1.08,332.5781,12,10,1416095757,-0.2320404,0.8296509,0.4076385,-18.22513,42.60944,-20.3212,171.3497,174.432,15,-1.05921,-0.823018,-0.7104992,-1.33521,-2.683356,-1.149497,-0.9006763,-0.715631,-0.6739111,0.04899228,-0.1222142,-0.06356489,172.17.160.76,10.64.29.0,2,unknown,2,2014-11-15 17:55:53.389,8,2014-11-15 17:52:35.410,3
2014-11-15 17:55:57.751,8070,269,40.10468,-88.22196,235.7435,1.08,332.5781,12,10,1416095757,-0.2639771,0.803894,0.445343,-19.70115,43.05685,-19.34641,170.6744,173.7567,15,-1.036863,-0.5738132,-0.6339053,-1.32146,-2.701101,-1.098661,-1.144873,-0.6865957,-0.6431224,-0.04035334,-0.06830326,-0.06352079,172.17.160.76,10.64.29.0,2,unknown,2,2014-11-15 17:55:53.389,8,2014-11-15 17:52:35.410,3
2014-11-15 17:55:57.784,8071,269.0334,40.10468,-88.22196,235.7435,1.08,332.5781,12,10,1416095757,-0.2208099,0.8038177,0.4990997,-21.48609,43.53868,-17.39688,170.576,173.6583,15,-1.149464,-0.5002375,-0.7477363,-1.309012,-2.710786,-1.051259,-1.013464,-0.453161,-0.6784757,-0.06175736,-0.07913913,0.1071127,172.17.160.76,10.64.29.0,2,unknown,2,2014-11-15 17:55:53.389,8,2014-11-15 17:52:35.410,3
2014-11-15 17:55:57.818,8072,269.0667,40.10468,-88.22196,235.7435,1.08,332.5781,12,10,1416095757,-0.3049622,0.7689972,0.4876251,-23.27104,43.53868,-15.1785,170.5896,173.6719,15,-1.29976,-0.3713959,-0.7210194,-1.296935,-2.71311,-1.012884,-1.13905,-0.357808,-0.7231472,0.0005618118,-0.06384663,-0.07318483,172.17.160.76,10.64.29.0,2,unknown,2,2014-11-15 17:55:53.389,8,2014-11-15 17:52:35.410,3
2014-11-15 17:55:57.851,8073,269.1,40.10468,-88.22196,235.7435,1.08,332.5781,12,10,1416095757,-0.2340851,0.9010162,0.6235199,-24.09485,43.05685,-14.439,170.937,174.0193,15,-1.339807,-0.2320071,-0.8390214,-1.290447,-2.715204,-0.9697439,-1.28925,-0.169589,-0.7131019,-0.07107512,-0.05574374,-0.02725278,172.17.160.76,10.64.29.0,2,unknown,2,2014-11-15 17:55:53.389,8,2014-11-15 17:52:35.410,3
2014-11-15 17:55:57.884,8074,269.1334,40.10468,-88.22196,235.7435,1.08,332.5781,12,10,1416095757,-0.2436829,0.7810822,0.4072418,-26.2574,42.67828,-12.5903,171.9915,175.0738,15,-1.363152,-0.2162961,-0.8706958,-1.284153,-2.713053,-0.9399507,-1.272926,-0.1651071,-0.8224721,-0.03914209,0.05471464,0.1665721,172.17.160.76,10.64.29.0,2,unknown,2,2014-11-15 17:55:53.389,8,2014-11-15 17:52:35.410,3
2014-11-15 17:55:57.918,8075,269.1667,40.10468,-88.22196,235.7435,1.08,332.5781,12,10,1416095757,-0.2484283,0.8417511,0.8035278,-28.21397,42.57501,-10.47269,174.4598,177.5421,15,-1.246747,-0.05185068,-0.8968027,-1.265175,-2.706307,-0.8467357,-1.28347,-0.05148423,-0.8324493,0.01330549,0.07027498,0.1837637,172.17.160.76,10.64.29.0,2,unknown,2,2014-11-15 17:55:53.389,8,2014-11-15 17:52:35.410,3
2014-11-15 17:55:57.951,8076,269.2,40.10468,-88.22196,235.7435,1.08,332.5781,12,10,1416095757,-0.2776031,0.6203308,0.4943695,-28.96914,42.2997,-9.464264,175.9992,179.0815,15,-1.246638,-0.2299123,-0.9784134,-1.25597,-2.699633,-0.8177161,-1.160539,-0.03747627,-0.9400455,0.06103142,0.07249248,0.0726331,172.17.160.76,10.64.29.0,2,unknown,2,2014-11-15 17:55:53.389,8,2014-11-15 17:52:35.410,3
2014-11-15 17:55:57.984,8077,269.2333,40.10468,-88.22196,235.7435,1.08,332.5781,12,10,1416095757,-0.3007202,0.7450867,0.8831635,-31.06302,41.71461,-7.548309,179.3096,182.392,15,-1.526025,-0.218931,-0.9486494,-1.239671,-2.698042,-0.7533023,-1.538094,-0.2945017,-0.9484773,0.03822501,-0.07244851,-0.09607466,172.17.160.76,10.64.29.0,2,unknown,2,2014-11-15 17:55:53.389,8,2014-11-15 17:52:35.410,3
2014-11-15 17:55:58.018,8078,269.2667,40.10468,-88.22196,235.7435,1.08,332.5781,12,10,1416095757,-0.2799835,0.6164093,0.6786957,-33.32853,40.47566,-5.665985,182.4479,185.5302,15,-1.233107,-0.2833928,-0.8832123,-1.233576,-2.697047,-0.7199091,-1.288669,-0.1220777,-0.8943678,0.02261817,0.08577035,0.2043746,172.17.160.76,10.64.29.0,2,unknown,2,2014-11-15 17:55:53.389,8,2014-11-15 17:52:35.410,3
2014-11-15 17:55:58.052,8079,269.3,40.10468,-88.22196,235.7435,1.08,332.5781,12,10,1416095757,-0.2506561,0.5054779,0.5297852,-34.39263,40.09706,-4.758392,287.0678,290.1501,15,-1.527557,-0.5882443,-0.887961,-1.223009,-2.699363,-0.6775643,-1.177181,-0.4510371,-0.8296443,0.05343762,-0.01048789,-0.02545647,172.17.160.76,10.64.29.0,2,unknown,2,2014-11-15 17:55:53.389,8,2014-11-15 17:52:35.410,3
2014-11-15 17:55:58.084,8080,269.3333,40.10468,-88.22196,235.7435,1.08,332.5781,12,10,1416095757,-0.4249115,0.5458069,0.8704071,-35.86866,38.41066,-2.170166,301.9648,305.0471,15,-1.325402,-0.7502365,-0.7982836,-1.210472,-2.716577,-0.5969039,-1.300841,-0.5340267,-0.8519095,0.0378417,-0.003765333,0.1491982,172.17.160.76,10.64.29.0,2,unknown,2,2014-11-15 17:55:53.389,8,2014-11-15 17:52:35.410,3
2014-11-15 17:55:58.118,8081,269.3667,40.10469,-88.22195,235.7376,0.98,341.0156,12,10,1416095758,-0.4979401,0.4759979,0.719101,-37.20737,37.27495,0.6868896,301.6728,304.7551,15,-1.4811,-0.5041066,-0.7178548,-1.205002,-2.726656,-0.5671204,-1.258525,-0.6833397,-0.7817349,-0.08488952,0.008601416,0.09852931,172.17.160.76,10.64.29.0,2,unknown,2,2014-11-15 17:55:53.389,8,2014-11-15 17:52:35.410,3
2014-11-15 17:55:58.151,8082,269.4,40.10469,-88.22195,235.7376,0.98,341.0156,12,10,1416095758,-0.3522949,0.3841248,0.9259796,-38.09985,36.51779,1.896942,301.1833,304.2656,15,-1.352817,0.01020843,-0.705012,-1.200866,-2.738686,-0.5046507,-1.435357,0.00413932,-0.6511363,-0.1211694,-0.01331735,-0.07787935,172.17.160.76,10.64.29.0,2,unknown,2,2014-11-15 17:55:53.389,8,2014-11-15 17:52:35.410,3
2014-11-15 17:55:58.184,8083,269.4333,40.10469,-88.22195,235.7376,0.98,341.0156,12,10,1416095758,-0.4229584,0.3829498,0.828476,-39.67884,35.41647,3.913788,300.7647,303.847,15,-1.397491,-0.1273561,-0.773504,-1.197076,-2.734819,-0.4603681,-1.213363,0.04598091,-0.7249897,0.002161671,-0.06015313,0.1031931,172.17.160.76,10.64.29.0,2,unknown,2,2014-11-15 17:55:53.389,8,2014-11-15 17:52:35.410,3
2014-11-15 17:55:58.218,8084,269.4667,40.10469,-88.22195,235.7376,0.98,341.0156,12,10,1416095758,-0.3020172,0.3383331,0.8204346,-41.32648,33.83331,5.05661,299.993,303.0753,15,-1.492452,-0.02277429,-0.7195235,-1.189411,-2.731696,-0.3836907,-1.446871,0.07915086,-0.7059196,0.03906316,0.0001053428,-0.07891403,172.17.160.76,10.64.29.0,2,unknown,2,2014-11-15 17:55:53.389,8,2014-11-15 17:52:35.410,3
2014-11-15 17:55:58.251,8085,269.5,40.10469,-88.22195,235.7376,0.98,341.0156,12,10,1416095758,-0.4609375,0.2468414,0.9547577,-41.66973,33.00732,6.064972,299.8283,302.9106,15,-1.409484,-0.3204401,-0.7341395,-1.186366,-2.732955,-0.3368099,-1.356464,-0.2567887,-0.7228881,-0.03115546,-0.06550905,0.03108339,172.17.160.76,10.64.29.0,2,unknown,2,2014-11-15 17:55:53.389,8,2014-11-15 17:52:35.410,3
2014-11-15 17:55:58.284,8086,269.5334,40.10469,-88.22195,235.7376,0.98,341.0156,12,10,1416095758,-0.5118408,0.2198181,0.7947845,-43.42035,31.45859,6.636414,299.3503,302.4326,15,-1.426769,-0.1846583,-0.6240271,-1.183895,-2.737103,-0.3068025,-1.308649,-0.2287378,-0.6634765,-0.1729532,-0.03307588,0.06707548,172.17.160.76,10.64.29.0,2,unknown,2,2014-11-15 17:55:53.389,8,2014-11-15 17:52:35.410,3
2014-11-15 17:55:58.318,8087,269.5667,40.10469,-88.22195,235.7376,0.98,341.0156,12,10,1416095758,-0.3762665,0.2070312,1.03157,-44.62176,28.94621,7.745605,298.3568,301.4391,15,-1.406279,0.3193642,-0.573683,-1.185971,-2.735063,-0.2466391,-1.423856,0.328282,-0.4977053,0.0235491,-0.08464602,-0.09323328,172.17.160.76,10.64.29.0,2,unknown,2,2014-11-15 17:55:53.389,8,2014-11-15 17:52:35.410,3
2014-11-15 17:55:58.351,8088,269.6,40.10469,-88.22195,235.7376,0.98,341.0156,12,10,1416095758,-0.2748413,0.01550293,0.8332367,-45.61722,27.81048,8.048126,297.8562,300.9385,15,-1.429057,0.2335848,-0.8192517,-1.181785,-2.721647,-0.189598,-1.230061,0.2536992,-0.7949772,-0.02923664,0.01391323,0.09830811,172.17.160.76,10.64.29.0,2,unknown,2,2014-11-15 17:55:53.389,8,2014-11-15 17:52:35.410,3
2014-11-15 17:55:58.384,8089,269.6334,40.10469,-88.22195,235.7376,0.98,341.0156,12,10,1416095758,-0.3422241,0.02635193,0.9580383,-46.71565,25.74551,8.854858,294.4698,297.5521,15,-1.312727,0.1576187,-0.8816533,-1.176181,-2.712042,-0.1431597,-1.358964,0.323799,-0.8068633,0.1373603,-0.1271682,-0.06661594,172.17.160.76,10.64.29.0,2,unknown,2,2014-11-15 17:55:53.389,8,2014-11-15 17:52:35.410,3
2014-11-15 17:55:58.418,8090,269.6667,40.10469,-88.22195,235.7376,0.98,341.0156,12,10,1416095758,-0.5197296,0.04515076,0.9688873,-48.15734,24.02469,8.922058,293.9754,297.0577,15,-1.41452,-0.2051332,-0.8025098,-1.16888,-2.703897,-0.09762354,-1.258611,0.1104693,-0.9092034,0.07961094,-0.07111663,0.05661996,172.17.160.76,10.64.29.0,2,unknown,2,2014-11-15 17:55:53.389,8,2014-11-15 17:52:35.410,3
2014-11-15 17:55:58.451,8091,269.7,40.10469,-88.22195,235.7376,0.98,341.0156,12,10,1416095758,-0.4962463,0.04924011,0.931427,-48.7752,22.9922,9.123688,293.1971,296.2794,15,-1.42016,-0.2597147,-0.7136116,-1.164599,-2.704575,-0.0666908,-1.347656,-0.1382633,-0.7859864,-0.05372974,-0.02240615,0.07257403,172.17.160.76,10.64.29.0,2,unknown,2,2014-11-15 17:55:53.389,8,2014-11-15 17:52:35.410,3
2014-11-15 17:55:58.484,8092,269.7333,40.10469,-88.22195,235.7376,0.98,341.0156,12,10,1416095758,-0.5345764,-0.005691528,1.001678,-50.01094,20.58306,10.19934,292.2717,295.354,15,-1.26887,0.03639583,-0.6085936,-1.162676,-2.711178,-0.009092732,-1.210605,-0.09989513,-0.6207065,-0.04424078,0.04791423,0.02805827,172.17.160.76,10.64.29.0,6,unknown,2,2014-11-15 17:55:53.389,8,2014-11-15 17:52:35.410,3
2014-11-15 17:55:58.518,8093,269.7667,40.10469,-88.22195,235.7376,0.98,341.0156,12,10,1416095758,-0.4037323,-0.1589813,0.863266,-51.10938,19.06874,11.54388,292.1348,295.2171,15,-1.28075,0.1262115,-0.5348338,-1.161752,-2.706993,0.04477391,-1.22663,0.2046714,-0.5320013,-0.1044598,-0.01012691,-0.002824481,172.17.160.76,10.64.29.0,6,unknown,2,2014-11-15 17:55:53.389,8,2014-11-15 17:52:35.410,3
2014-11-15 17:55:58.551,8094,269.8,40.10469,-88.22195,235.7376,0.98,341.0156,12,10,1416095758,-0.542511,-0.09939575,1.016708,-51.6586,18.24275,11.87997,292.6012,295.6835,15,-0.8853828,0.09017304,-0.4982907,-1.160971,-2.698906,0.09229214,-0.8514045,0.218393,-0.5205964,-0.03388886,-0.02705575,0.07585783,172.17.160.76,10.64.29.0,6,unknown,2,2014-11-15 17:55:53.389,8,2014-11-15 17:52:35.410,3
2014-11-15 17:55:58.584,8095,269.8333,40.10469,-88.22195,235.7376,0.98,341.0156,12,10,1416095758,-0.4847565,-0.1741333,0.9472504,-52.10485,17.17585,12.51862,292.4734,295.5557,15,-1.007312,0.003931358,-0.3878942,-1.159712,-2.696127,0.1113145,-0.854984,0.1033058,-0.4235328,-0.1142992,0.011689,0.1198835,172.17.160.76,10.64.29.0,6,unknown,2,2014-11-15 17:55:53.389,8,2014-11-15 17:52:35.410,3
2014-11-15 17:55:58.618,8096,269.8667,40.10469,-88.22195,235.7376,0.98,341.0156,12,10,1416095758,-0.475708,-0.2030029,0.9413147,-52.72273,15.79919,12.85474,292.3154,295.3977,15,-0.9821083,0.04106967,-0.2519233,-1.164667,-2.692633,0.153053,-0.9780037,0.0873876,-0.2872864,-0.05598445,-0.02550712,0.07256871,172.17.160.76,10.64.29.0,6,unknown,2,2014-11-15 17:55:53.389,8,2014-11-15 17:52:35.410,3
2014-11-15 17:55:58.651,8097,269.9,40.10469,-88.22195,235.7376,0.98,341.0156,12,10,1416095758,-0.382431,-0.2421417,0.8982544,-52.75706,15.07645,13.09003,292.4271,295.5094,15,-0.8837532,-0.06293849,-0.3706638,-1.172271,-2.68645,0.189715,-0.9396467,0.1065827,-0.2756528,0.07165708,-0.05398998,-0.02504241,172.17.160.76,10.64.29.0,6,unknown,2,2014-11-15 17:55:53.389,8,2014-11-15 17:52:35.410,3
2014-11-15 17:55:58.684,8098,269.9333,40.10469,-88.22195,235.7376,0.98,341.0156,12,10,1416095758,-0.5656891,-0.1208801,0.9766998,-53.6152,14.21604,13.25806,292.7816,295.8639,15,-0.7506735,-0.09556221,-0.3203828,-1.174167,-2.685411,0.2086622,-0.8168931,0.003928185,-0.3541412,0.04853665,-0.03499045,0.01998609,172.17.160.76,10.64.29.0,6,unknown,2,2014-11-15 17:55:53.389,8,2014-11-15 17:52:35.410,3
2014-11-15 17:55:58.718,8099,269.9667,40.10469,-88.22195,235.7376,0.98,341.0156,12,10,1416095758,-0.3608551,-0.3012848,0.8728333,-53.82116,13.87188,13.19083,293.3306,296.4129,15,-0.5665689,-0.05438867,-0.2030309,-1.177992,-2.686697,0.2347347,-0.6012146,-0.03267642,-0.1216157,-0.1024348,0.1214247,0.05157563,172.17.160.76,10.64.29.0,6,unknown,2,2014-11-15 17:55:53.389,8,2014-11-15 17:52:35.410,3
2014-11-15 17:55:58.751,8100,270,40.10469,-88.22195,235.7376,0.98,341.0156,12,10,1416095758,-0.4221497,-0.1414032,1.017792,-54.09577,13.94071,13.05637,293.5273,296.6096,15,-0.5119631,-0.01668151,-0.2720331,-1.180162,-2.686272,0.2459899,-0.4997095,0.0124772,-0.1865085,0.03408668,-0.02198641,-0.03073654,172.17.160.76,10.64.29.0,6,unknown,2,2014-11-15 17:55:53.389,8,2014-11-15 17:52:35.410,3
2014-11-15 17:55:58.784,8101,270.0334,40.10469,-88.22195,235.7376,0.98,341.0156,12,10,1416095758,-0.4067993,-0.1309357,0.9510651,-54.16442,12.90823,13.45972,293.6508,296.7331,15,-0.2155967,-0.2372035,-0.3295012,-1.177285,-2.686809,0.2641291,-0.2948717,-0.07637277,-0.2609858,0.001885055,0.1196655,0.1505907,172.17.160.76,10.64.29.0,6,unknown,2,2014-11-15 17:55:53.389,8,2014-11-15 17:52:35.410,3
2014-11-15 17:55:58.818,8102,270.0667,40.10469,-88.22195,235.7376,0.98,341.0156,12,10,1416095758,-0.5446167,-0.1767731,0.9695892,-54.64499,12.08223,13.99753,292.889,295.9713,15,-0.07559942,-0.3046651,-0.1074695,-1.16653,-2.699147,0.2767786,-0.0477846,-0.2281375,-0.2213126,-0.07637995,0.06882102,0.07989058,172.17.160.76,10.64.29.0,6,unknown,2,2014-11-15 17:55:53.389,8,2014-11-15 17:52:35.410,3
2014-11-15 17:55:58.851,8103,270.1,40.10469,-88.22195,235.7376,0.98,341.0156,12,10,1416095758,-0.5549011,-0.1731262,0.934433,-54.64499,11.66924,14.53531,292.6602,295.7425,15,0.05706968,-0.3170994,0.0840965,-1.165271,-2.704313,0.2771571,0.05805128,-0.2518159,0.02761461,-0.1541772,0.1223467,0.1201658,172.17.160.76,10.64.29.0,6,unknown,2,2014-11-15 17:55:53.389,8,2014-11-15 17:52:35.410,3
2014-11-15 17:55:58.884,8104,270.1334,40.10469,-88.22195,235.7376,0.98,341.0156,12,10,1416095758,-0.441391,-0.2620392,0.9067078,-54.91959,12.21991,14.93866,292.7396,295.8219,15,0.09450813,-0.2173613,0.06749782,-1.166575,-2.713763,0.2708525,0.1559552,-0.235463,0.08889994,-0.09525488,0.003926843,0.02447117,172.17.160.76,10.64.29.0,6,unknown,2,2014-11-15 17:55:53.389,8,2014-11-15 17:52:35.410,3
2014-11-15 17:55:58.918,8105,270.1667,40.10469,-88.22195,235.7376,0.98,341.0156,12,10,1416095758,-0.3356323,-0.2358551,0.9571991,-54.78229,12.90823,15.20758,292.9936,296.0759,15,0.3003095,-0.1835248,0.05841351,-1.166238,-2.717252,0.2640156,0.3031906,-0.07720936,0.08918187,-0.008994056,0.005450667,0.05106824,172.17.160.76,10.64.29.0,6,unknown,2,2014-11-15 17:55:53.389,8,2014-11-15 17:52:35.410,3
2014-11-15 17:55:58.951,8106,270.2,40.10469,-88.22195,235.7376,0.98,341.0156,12,10,1416095758,-0.4559937,-0.2615814,0.9067993,-54.71364,13.32122,15.20758,293.3155,296.3978,15,0.3716127,-0.3599763,0.05403288,-1.160751,-2.725622,0.2500988,0.3641691,-0.2747242,-0.03203415,0.04728291,0.01184297,0.05897045,172.17.160.76,10.64.29.0,6,unknown,2,2014-11-15 17:55:53.389,8,2014-11-15 17:52:35.410,3
2014-11-15 17:55:58.983,8107,270.2333,40.10469,-88.22195,235.7376,0.98,341.0156,12,10,1416095758,-0.4978943,-0.1348267,1.029236,-54.23307,13.39005,15.20758,292.7874,295.8698,15,0.3998284,-0.3319556,0.2493875,-1.157826,-2.732466,0.2424118,0.4384688,-0.2931136,0.07055447,-0.06981667,-0.02153682,0.01615577,172.17.160.76,10.64.29.0,6,unknown,2,2014-11-15 17:55:53.389,8,2014-11-15 17:52:35.410,3
2014-11-15 17:55:59.018,8108,270.2667,40.10469,-88.22195,235.7376,0.98,341.0156,12,10,1416095758,-0.5305939,-0.2212982,0.9730377,-53.88983,13.52771,15.4765,292.2582,295.3405,15,0.4847938,-0.2119642,0.3855709,-1.159995,-2.742965,0.2205875,0.5314118,-0.2877921,0.3600189,-0.1252496,0.09876201,0.1421945,172.17.160.76,10.64.29.0,6,unknown,2,2014-11-15 17:55:53.389,8,2014-11-15 17:52:35.410,3
2014-11-15 17:55:59.051,8109,270.3,40.10469,-88.22195,235.7376,0.98,341.0156,12,10,1416095758,-0.4356537,-0.1831207,0.9541016,-53.68386,13.59654,15.74542,292.3439,295.4262,15,0.5828485,0.03396702,0.4554951,-1.164684,-2.746937,0.2008381,0.5335819,-0.03238577,0.4123068,-0.1538319,-0.02180757,0.06846385,172.17.160.76,10.64.29.0,6,unknown,2,2014-11-15 17:55:53.389,8,2014-11-15 17:52:35.410,3
2014-11-15 17:55:59.085,8110,270.3333,40.10469,-88.22195,235.7376,0.98,341.0156,12,10,1416095758,-0.4414368,-0.1315308,1.047226,-53.2033,14.90436,15.67819,292.8028,295.8851,15,0.8450274,0.06063272,0.4854367,-1.168518,-2.74487,0.1864616,0.6497034,0.1008285,0.4720164,-0.07864336,-0.03058992,0.03478676,172.17.160.76,10.64.29.0,6,unknown,2,2014-11-15 17:55:53.389,8,2014-11-15 17:52:35.410,3
2014-11-15 17:55:59.118,8111,270.3667,40.10471,-88.22195,235.6947,0.89,337.1484,12,30,1416095759,-0.4566803,-0.1833344,0.947525,-52.58543,16.4875,14.87146,293.3625,296.4448,15,0.7912512,0.03203303,0.6351565,-1.175697,-2.736705,0.1254777,0.8487856,0.09395292,0.5593375,-0.06340507,-0.05315024,0.001806496,172.17.160.76,10.64.29.0,6,unknown,2,2014-11-15 17:55:53.389,8,2014-11-15 17:52:35.410,3
2014-11-15 17:55:59.151,8112,270.4,40.10471,-88.22195,235.6947,0.89,337.1484,12,30,1416095759,-0.4394684,-0.03392029,1.028946,-52.24218,17.38232,13.72864,293.4721,296.5544,15,0.9208236,0.02254046,0.7938436,-1.181264,-2.734174,0.1040236,0.9164253,0.08687185,0.7522366,-0.06645765,-0.04603575,0.06746812,172.17.160.76,10.64.29.0,6,unknown,2,2014-11-15 17:55:53.389,8,2014-11-15 17:52:35.410,3
2014-11-15 17:55:59.184,8113,270.4333,40.10471,-88.22195,235.6947,0.89,337.1484,12,30,1416095759,-0.4308777,-0.03593445,0.9743195,-51.07508,18.8278,12.58582,293.9417,297.024,15,0.9764435,-0.004563593,0.7255577,-1.194085,-2.729182,0.05375731,1.042199,0.07089341,0.7548658,-0.04122679,0.02075718,0.09307047,172.17.160.76,10.64.29.0,6,unknown,2,2014-11-15 17:55:53.389,8,2014-11-15 17:52:35.410,3
2014-11-15 17:55:59.218,8114,270.4667,40.10471,-88.22195,235.6947,0.89,337.1484,12,30,1416095759,-0.3269958,-0.05862427,0.989975,-49.97666,20.89277,11.64465,294.8286,297.9109,15,1.069024,-0.01803226,0.7771528,-1.201929,-2.727841,0.01608001,1.058139,0.02097472,0.7587891,0.002901942,-0.0439335,0.03561042,172.17.160.76,10.64.29.0,6,unknown,2,2014-11-15 17:55:53.389,8,2014-11-15 17:52:35.410,3
2014-11-15 17:55:59.252,8115,270.5,40.10471,-88.22195,235.6947,0.89,337.1484,12,30,1416095759,-0.4891663,0.01139832,1.004181,-49.29014,22.06293,11.57742,295.4998,298.5821,15,1.294575,-0.1586003,0.8912694,-1.211089,-2.727488,-0.04277142,1.362774,-0.08823105,0.8122472,0.009515542,-0.07834187,0.07681525,172.17.160.76,10.64.29.0,6,unknown,2,2014-11-15 17:55:53.389,8,2014-11-15 17:52:35.410,3
2014-11-15 17:55:59.285,8116,270.5334,40.10471,-88.22195,235.6947,0.89,337.1484,12,30,1416095759,-0.4689636,0.1058502,0.9638519,-48.74092,24.88506,10.56906,296.5637,299.646,15,1.390612,0.0519146,0.9143096,-1.219159,-2.730646,-0.09085643,1.394446,0.003016431,0.9378639,-0.1016975,-0.03163418,0.1100636,172.17.160.76,10.64.29.0,6,unknown,2,2014-11-15 17:55:53.389,8,2014-11-15 17:52:35.410,3
2014-11-15 17:55:59.318,8117,270.5667,40.10471,-88.22195,235.6947,0.89,337.1484,12,30,1416095759,-0.4685974,0.1677704,1.006622,-48.02008,26.08963,10.19928,297.1575,300.2398,15,1.376817,0.04324494,0.890963,-1.225028,-2.729375,-0.1246001,1.457453,0.1187524,0.9308069,-0.07142758,-0.01842769,0.05472042,172.17.160.76,10.64.29.0,6,unknown,2,2014-11-15 17:55:53.389,8,2014-11-15 17:52:35.410,3
2014-11-15 17:55:59.351,8118,270.6,40.10471,-88.22195,235.6947,0.89,337.1484,12,30,1416095759,-0.4198456,0.2253723,0.9820404,-46.37243,28.36111,9.325348,298.2424,301.3247,15,1.570933,0.136601,0.8832973,-1.235512,-2.726629,-0.1930375,1.518119,0.1317443,0.9667384,-0.07292937,-0.02407043,0.1084887,172.17.160.76,10.64.29.0,6,unknown,2,2014-11-15 17:55:53.389,8,2014-11-15 17:52:35.410,3
2014-11-15 17:55:59.384,8119,270.6334,40.10471,-88.22195,235.6947,0.89,337.1484,12,30,1416095759,-0.2518768,0.2006073,0.9842682,-44.24423,30.08192,8.182495,299.1236,302.2059,15,1.701264,0.191216,0.8066702,-1.241856,-2.720555,-0.2678361,1.724258,0.1988005,0.8538024,0.08328353,-0.06333607,0.07290845,172.17.160.76,10.64.29.0,6,unknown,2,2014-11-15 17:55:53.389,8,2014-11-15 17:52:35.410,3
2014-11-15 17:55:59.418,8120,270.6667,40.10471,-88.22195,235.6947,0.89,337.1484,12,30,1416095759,-0.301651,0.2927704,0.9608917,-42.56226,31.83716,6.132111,299.6805,302.7628,15,1.865002,0.01496643,0.5524962,-1.238601,-2.709816,-0.3465133,1.908281,0.1778958,0.6290305,0.1311296,-0.08237246,0.1637031,172.17.160.76,10.64.29.0,6,unknown,2,2014-11-15 17:55:53.389,8,2014-11-15 17:52:35.410,3
2014-11-15 17:55:59.451,8121,270.7,40.10471,-88.22195,235.6947,0.89,337.1484,12,30,1416095759,-0.4190826,0.3511505,0.8498535,-41.5668,32.90406,4.686737,300.084,303.1663,15,1.91842,-0.07051571,0.492403,-1.231979,-2.705956,-0.3863788,1.956471,0.03360543,0.5198189,0.06160958,-0.05202284,0.1111918,172.17.160.76,10.64.29.0,6,unknown,2,2014-11-15 17:55:53.389,8,2014-11-15 17:52:35.410,3
2014-11-15 17:55:59.484,8122,270.7333,40.10471,-88.22195,235.6947,0.89,337.1484,12,30,1416095759,-0.5201721,0.3864441,0.8366089,-40.33105,34.55605,1.930481,300.1255,303.2078,15,1.942415,-0.07773448,0.6642352,-1.216287,-2.699974,-0.4667135,1.979641,-0.02744648,0.5979602,-0.09128288,-0.07628118,0.05000286,172.17.160.76,10.64.29.0,6,unknown,2,2014-11-15 17:55:53.389,8,2014-11-15 17:52:35.410,3
2014-11-15 17:55:59.517,8123,270.7667,40.10471,-88.22195,235.6947,0.89,337.1484,12,30,1416095759,-0.4768372,0.503479,0.855072,-38.82071,36.34569,-1.296356,300.3109,303.3932,15,1.963399,0.2233146,0.8525628,-1.209598,-2.695551,-0.5309433,2.028098,0.1528353,0.8365,-0.1834736,-0.07330254,0.07276229,172.17.160.76,10.64.29.0,6,unknown,2,2014-11-15 17:55:53.389,8,2014-11-15 17:52:35.410,3
2014-11-15 17:55:59.551,8124,270.8,40.10471,-88.22195,235.6947,0.89,337.1484,12,30,1416095759,-0.367569,0.5248718,0.7427979,-38.30582,37.20609,-2.472778,300.2755,303.3578,15,1.944944,0.3896972,0.6518265,-1.202508,-2.676063,-0.6175714,1.983894,0.4612273,0.7257723,0.009442127,-0.06562914,0.0664858,172.17.160.76,10.64.29.0,6,unknown,2,2014-11-15 17:55:53.389,8,2014-11-15 17:52:35.410,3
2014-11-15 17:55:59.584,8125,270.8333,40.10471,-88.22195,235.6947,0.89,337.1484,12,30,1416095759,-0.4100494,0.6331177,0.7644196,-36.28058,38.75482,-5.262604,300.4441,303.5264,15,2.160265,0.5205931,0.6920459,-1.194308,-2.661813,-0.6597102,2.064111,0.4945991,0.6470979,-0.002839742,-0.08801608,0.04184064,172.17.160.76,10.64.29.0,6,unknown,2,2014-11-15 17:55:53.389,8,2014-11-15 17:52:35.410,3
2014-11-15 17:55:59.618,8126,270.8667,40.10471,-88.22195,235.6947,0.89,337.1484,12,30,1416095759,-0.3186035,0.6995697,0.74617,-34.39265,38.99571,-8.119781,299.8715,302.9538,15,2.252079,0.6916181,0.6915412,-1.177581,-2.63369,-0.7277359,2.252653,0.6598946,0.7385497,-0.04690386,-0.03206312,0.1119935,172.17.160.76,10.64.29.0,6,unknown,2,2014-11-15 17:55:53.389,8,2014-11-15 17:52:35.410,3
2014-11-15 17:55:59.651,8127,270.9,40.10471,-88.22195,235.6947,0.89,337.1484,12,30,1416095759,-0.4941559,0.6987152,0.5666199,-33.15692,39.13336,-9.800385,201.2616,204.3439,15,2.484688,0.06872927,0.8168908,-1.145385,-2.583075,-0.8226242,2.423223,0.5501533,0.7097344,0.04190774,-0.03336388,0.1692472,172.17.160.76,10.64.29.0,6,unknown,2,2014-11-15 17:55:53.389,8,2014-11-15 17:52:35.410,3
2014-11-15 17:55:59.684,8128,270.9333,40.10471,-88.22195,235.6947,0.89,337.1484,12,30,1416095759,-0.3750916,0.6813049,0.403244,-30.85707,38.96129,-13.5314,185.8803,188.9626,15,2.257837,0.2689708,1.148916,-1.11414,-2.553373,-0.8994067,2.529845,0.05236226,0.9306864,-0.1489788,-0.08424275,0.04909728,172.17.160.76,10.64.29.0,6,unknown,2,2014-11-15 17:55:53.389,8,2014-11-15 17:52:35.410,3
2014-11-15 17:55:59.718,8129,270.9667,40.10471,-88.22195,235.6947,0.89,337.1484,12,30,1416095759,-0.4087219,0.9230499,0.4100342,-29.3124,39.20219,-14.90958,184.0693,187.1516,15,1.962842,0.4525329,1.09579,-1.09041,-2.519437,-1.001228,2.105022,0.6341041,1.255908,-0.00925282,-0.08862451,-0.03522244,172.17.160.76,10.64.29.0,6,unknown,2,2014-11-15 17:55:53.389,8,2014-11-15 17:52:35.410,3
2014-11-15 17:55:59.752,8130,271,40.10471,-88.22195,235.6947,0.89,337.1484,12,30,1416095759,-0.3317719,0.9101868,0.2218475,-27.01256,39.3743,-18.37173,176.8679,179.9502,15,1.72816,0.8570303,0.8949941,-1.062545,-2.472973,-1.090982,1.887574,0.6144388,0.8882843,-0.1422191,0.1048015,-0.07397997,172.17.160.76,10.64.29.0,6,unknown,2,2014-11-15 17:55:53.389,8,2014-11-15 17:52:35.410,3
2014-11-15 17:55:59.784,8131,271.0334,40.10471,-88.22195,235.6947,0.89,337.1484,12,30,1416095759,-0.1519623,0.7197418,0.1311951,-24.19783,39.71846,-20.72458,176.5399,179.6222,15,1.251517,1.184382,1.017389,-1.039616,-2.420153,-1.148483,1.499577,1.251138,1.035329,0.008255342,-0.05441608,-0.1349946,172.17.160.76,10.64.29.0,6,unknown,2,2014-11-15 17:55:53.389,8,2014-11-15 17:52:35.410,3
2014-11-15 17:55:59.818,8132,271.0667,40.10471,-88.22195,235.6947,0.89,337.1484,12,30,1416095759,0.09790039,0.6944122,0.008453369,-21.58905,39.64963,-22.4053,175.5795,178.6618,15,0.8380398,0.786041,0.866109,-1.034652,-2.379094,-1.195879,1.040155,1.107517,0.9832184,0.2126285,-0.2659872,-0.2034142,172.17.160.76,10.64.29.0,6,unknown,2,2014-11-15 17:55:53.389,8,2014-11-15 17:52:35.410,3
2014-11-15 17:55:59.851,8133,271.1,40.10471,-88.22195,235.6947,0.89,337.1484,12,30,1416095759,-0.08210754,0.7439117,0.1524048,-20.11303,39.6152,-22.97678,175.586,178.6684,15,0.4238533,-0.1422975,0.4615311,-1.034399,-2.360754,-1.228468,0.6164948,0.2172049,0.5480932,0.3341782,-0.2475634,-0.2299888,172.17.160.76,10.64.29.0,6,unknown,2,2014-11-15 17:55:53.389,8,2014-11-15 17:52:35.410,3
2014-11-15 17:55:59.884,8134,271.1334,40.10471,-88.22195,235.6947,0.89,337.1484,12,30,1416095759,-0.04264832,0.6253204,0.1368408,-17.77887,39.68404,-24.05234,175.4546,178.5369,15,0.4214463,-0.1799349,0.5430761,-1.032491,-2.36012,-1.24976,0.4766331,-0.1345906,0.5276576,0.1401429,-0.204997,-0.07159723,172.17.160.76,10.64.29.0,6,unknown,2,2014-11-15 17:55:53.389,8,2014-11-15 17:52:35.410,3
2014-11-15 17:55:59.918,8135,271.1667,40.10471,-88.22195,235.6947,0.89,337.1484,12,30,1416095759,-0.261261,1.040924,0.11203,-16.57746,39.23665,-24.42209,173.0166,176.0989,15,-0.1806577,-0.4766824,0.04274853,-1.03862,-2.373207,-1.276741,0.1773124,-0.4320737,0.3722354,0.2180916,-0.3006432,-0.2122318,172.17.160.76,10.64.29.0,6,unknown,2,2014-11-15 17:55:53.389,8,2014-11-15 17:52:35.410,3
2014-11-15 17:55:59.951,8136,271.2,40.10471,-88.22195,235.6947,0.89,337.1484,12,30,1416095759,-0.516098,0.6499786,0.3117218,-16.13122,39.27104,-24.72464,173.1655,176.2478,15,0.01917076,0.1501448,0.04423963,-1.051302,-2.394989,-1.27809,-0.1138248,-0.4098531,0.05924385,0.1281701,-0.05477178,-0.2743679,172.17.160.76,10.64.29.0,6,unknown,2,2014-11-15 17:55:53.389,8,2014-11-15 17:52:35.410,3
2014-11-15 17:55:59.984,8137,271.2333,40.10471,-88.22195,235.6947,0.89,337.1484,12,30,1416095759,0.1080475,0.9971313,0.2022552,-15.92527,39.20222,-24.65738,172.3457,175.428,15,-0.2518938,0.2063502,0.1538218,-1.06402,-2.394078,-1.290085,0.1447764,0.4375012,0.4236413,0.1605349,-0.274091,-0.03566422,172.17.160.76,10.64.29.0,6,unknown,2,2014-11-15 17:55:53.389,8,2014-11-15 17:52:35.410,3
2014-11-15 17:56:00.018,8138,271.2667,40.10471,-88.22195,235.6947,0.89,337.1484,12,30,1416095759,-0.1599731,1.028625,0.130661,-15.10144,39.61522,-24.25406,172.6261,175.7084,15,-0.2908404,0.08056755,-0.04306891,-1.081889,-2.404929,-1.293169,-0.1850619,0.2731786,0.1703169,0.2921764,0.03542291,-0.0007556062,172.17.160.76,10.64.29.0,6,unknown,2,2014-11-15 17:55:53.389,8,2014-11-15 17:52:35.410,3
2014-11-15 17:56:00.050,8139,271.3,40.10471,-88.22195,235.6947,0.89,337.1484,12,30,1416095759,-0.3016052,0.7803192,0.291748,-15.27308,39.44313,-23.88431,172.4144,175.4967,15,0.05437988,-0.4072596,0.2460385,-1.09824,-2.416139,-1.288851,-0.08253331,-0.03181556,0.03033409,0.02462187,0.06810946,-0.07750633,172.17.160.76,10.64.29.0,6,unknown,2,2014-11-15 17:55:53.389,8,2014-11-15 17:52:35.410,3
2014-11-15 17:56:00.084,8140,271.3333,40.10471,-88.22195,235.6947,0.89,337.1484,12,30,1416095759,-0.09870911,1.056152,0.05906677,-14.86116,39.37428,-23.54819,171.6498,174.7321,15,-0.1530894,-0.2708552,0.14457,-1.121542,-2.455222,-1.300172,0.02636055,-0.3393943,0.2533407,0.05551092,-0.05073197,-0.004036746,172.17.160.76,10.64.29.0,6,unknown,2,2014-11-15 17:55:53.389,8,2014-11-15 17:52:35.410,3
2014-11-15 17:56:00.118,8141,271.3667,40.10472,-88.22195,235.3766,0.29,321.6797,12,30,1416095760,-0.3107147,0.8765869,0.1789703,-14.82684,39.20221,-23.44736,171.5145,174.5968,15,-0.3355463,-0.1090804,-0.113958,-1.134316,-2.471231,-1.299886,-0.2094437,-0.1125428,0.02613805,0.0675481,0.09262467,-0.1506306,172.17.160.76,10.64.29.0,6,unknown,2,2014-11-15 17:55:53.389,8,2014-11-15 17:52:35.410,3
2014-11-15 17:56:00.151,8142,271.4,40.10472,-88.22195,235.3766,0.29,321.6797,12,30,1416095760,-0.1264496,0.9018097,0.2902679,-15.1701,39.40872,-23.44736,169.4733,172.5556,15,-0.06461814,-0.08243549,0.196182,-1.151551,-2.477862,-1.285576,-0.3071682,0.3454628,0.02573124,-0.08256528,-0.1220601,0.2984923,172.17.160.76,10.64.29.0,6,unknown,2,2014-11-15 17:55:53.389,8,2014-11-15 17:52:35.410,3
2014-11-15 17:56:00.184,8143,271.4333,40.10472,-88.22195,235.3766,0.29,321.6797,12,30,1416095760,0.003479004,0.8265076,-0.08384705,-14.96415,39.40872,-23.3129,172.0056,175.088,15,-0.3368992,-0.2094997,-0.04442392,-1.166363,-2.489665,-1.285982,0.002211462,-0.01560936,0.2126766,0.04402582,-0.05790427,0.06691343,172.17.160.76,10.64.29.0,6,unknown,2,2014-11-15 17:55:53.389,8,2014-11-15 17:52:35.410,3
2014-11-15 17:56:00.218,8144,271.4667,40.10472,-88.22195,235.3766,0.29,321.6797,12,30,1416095760,-0.1380005,0.8503418,0.3665009,-14.82684,40.0282,-23.3129,171.9051,174.9874,15,-0.7044141,-0.03275581,-0.4433572,-1.180994,-2.50736,-1.28074,-0.4529815,-0.1383879,-0.1758295,0.172955,-0.1317201,-0.314233,172.17.160.76,10.64.29.0,6,unknown,2,2014-11-15 17:55:53.389,8,2014-11-15 17:52:35.410,3
2014-11-15 17:56:00.251,8145,271.5,40.10472,-88.22195,235.3766,0.29,321.6797,12,30,1416095760,-0.1911011,1.031235,0.257309,-15.1701,40.09703,-23.2457,171.7647,174.847,15,-0.5961965,-0.05705823,-0.2772377,-1.187874,-2.512759,-1.250258,-0.7302149,0.1072327,-0.4505669,0.04732845,-0.09872421,0.1116933,172.17.160.76,10.64.29.0,2,unknown,2,2014-11-15 17:55:53.389,8,2014-11-15 17:52:35.410,3
2014-11-15 17:56:00.284,8146,271.5334,40.10472,-88.22195,235.3766,0.29,321.6797,12,30,1416095760,0.001861572,0.6448059,-0.1346893,-16.37151,40.40677,-23.01047,172.732,175.8143,15,-0.8607928,-0.3949372,-0.2918255,-1.196846,-2.520814,-1.231105,-0.4879999,-0.07814134,-0.2178627,0.02075971,0.01368544,-0.1422768,172.17.160.76,10.64.29.0,2,unknown,2,2014-11-15 17:55:53.389,8,2014-11-15 17:52:35.410,3
2014-11-15 17:56:00.318,8147,271.5667,40.10472,-88.22195,235.3766,0.29,321.6797,12,30,1416095760,-0.1720123,0.8977203,0.458725,-17.71022,40.92302,-21.76682,172.749,175.8313,15,-1.260997,-1.001019,-0.6554838,-1.224078,-2.565728,-1.185979,-1.085515,-0.6998724,-0.5553892,0.09648157,-0.1468836,0.1062953,172.17.160.76,10.64.29.0,2,unknown,2,2014-11-15 17:55:53.389,8,2014-11-15 17:52:35.410,3
2014-11-15 17:56:00.351,8148,271.6,40.10472,-88.22195,235.3766,0.29,321.6797,12,30,1416095760,-0.2271118,0.8298798,0.03971863,-18.12213,41.33601,-20.96011,173.6083,176.6906,15,-1.056705,-0.6967298,-0.4487189,-1.231422,-2.600061,-1.146978,-1.0569,-0.8389282,-0.5349991,-0.1052705,0.06575414,-0.001740675,172.17.160.76,10.64.29.0,2,unknown,2,2014-11-15 17:55:53.389,8,2014-11-15 17:52:35.410,3
2014-11-15 17:56:00.383,8149,271.6334,40.10472,-88.22195,235.3766,0.29,321.6797,12,30,1416095760,-0.1950226,0.9177704,0.6498413,-19.8041,41.78343,-19.11136,172.5714,175.6537,15,-1.363084,-0.3426183,-0.5720233,-1.244819,-2.626988,-1.111241,-1.322139,-0.2761526,-0.4609846,0.09927709,-0.123026,-0.3454092,172.17.160.76,10.64.29.0,2,unknown,2,2014-11-15 17:55:53.389,8,2014-11-15 17:52:35.410,3
2014-11-15 17:56:00.418,8150,271.6667,40.10472,-88.22195,235.3766,0.29,321.6797,12,30,1416095760,-0.3181305,0.9695892,0.2519684,-22.20692,41.85226,-17.56516,171.7736,174.8559,15,-1.237088,-0.6849187,-0.7260895,-1.249073,-2.642128,-1.067962,-1.267089,-0.5674527,-0.7610013,-0.03484172,0.1253667,0.2905827,172.17.160.76,10.64.29.0,2,unknown,2,2014-11-15 17:55:53.389,8,2014-11-15 17:52:35.410,3
2014-11-15 17:56:00.451,8151,271.7,40.10472,-88.22195,235.3766,0.29,321.6797,12,30,1416095760,-0.1730499,0.7694092,0.2064819,-22.92777,41.88667,-16.99374,172.2979,175.3802,15,-1.044631,-0.3548018,-0.4766851,-1.246935,-2.651747,-1.041567,-1.042628,-0.4886532,-0.5830979,-0.08682049,0.1725856,0.02157293,172.17.160.76,10.64.29.0,2,unknown,2,2014-11-15 17:55:53.389,8,2014-11-15 17:52:35.410,3
2014-11-15 17:56:00.484,8152,271.7333,40.10472,-88.22195,235.3766,0.29,321.6797,12,30,1416095760,-0.1444702,1.019196,0.7108612,-24.54109,42.33408,-15.27945,173.3448,176.4271,15,-1.352238,-0.7987353,-0.7496104,-1.25604,-2.668832,-0.9933206,-1.300672,-0.3116616,-0.5185723,0.09937783,-0.09062045,0.02734969,172.17.160.76,10.64.29.0,2,unknown,2,2014-11-15 17:55:53.389,8,2014-11-15 17:52:35.410,3
2014-11-15 17:56:00.518,8153,271.7667,40.10472,-88.22195,235.3766,0.29,321.6797,12,30,1416095760,-0.3424683,0.7108917,0.5026703,-25.74249,42.162,-13.1619,175.0879,178.1702,15,-1.108765,-0.5587493,-0.4722115,-1.251275,-2.691413,-0.9378076,-1.001056,-0.6930699,-0.6342199,0.04846416,0.1970176,0.02217469,172.17.160.76,10.64.29.0,2,unknown,2,2014-11-15 17:55:53.389,8,2014-11-15 17:52:35.410,3
2014-11-15 17:56:00.551,8154,271.8,40.10472,-88.22195,235.3766,0.29,321.6797,12,30,1416095760,-0.1796265,0.8015594,0.7364807,-26.39468,42.19643,-12.18716,174.5657,177.648,15,-1.085166,-0.5953209,-0.5298125,-1.251434,-2.707889,-0.9036031,-1.124164,-0.5075573,-0.4173013,-0.08243384,-0.07466982,-0.0588234,172.17.160.76,10.64.29.0,2,unknown,2,2014-11-15 17:55:53.389,8,2014-11-15 17:52:35.410,3
2014-11-15 17:56:00.584,8155,271.8333,40.10472,-88.22195,235.3766,0.29,321.6797,12,30,1416095760,-0.408432,0.6349792,0.4675293,-28.11098,41.85225,-9.901459,174.0796,177.1619,15,-1.220204,-0.7111087,-0.6753396,-1.250364,-2.722673,-0.8687798,-0.9945687,-0.5155158,-0.6195102,0.1317723,0.005791336,-0.00476007,172.17.160.76,10.64.29.0,2,unknown,2,2014-11-15 17:55:53.389,8,2014-11-15 17:52:35.410,3
2014-11-15 17:56:00.618,8156,271.8667,40.10472,-88.22195,235.3766,0.29,321.6797,12,30,1416095760,-0.4848785,0.7463684,0.8712921,-29.89592,41.78343,-8.019135,175.3283,178.4106,15,-1.068278,-0.1690665,-0.3652243,-1.24286,-2.744705,-0.8044132,-1.107906,-0.265509,-0.4447478,-0.23193,-0.01653587,0.3167351,172.17.160.76,10.64.29.0,2,unknown,2,2014-11-15 17:55:53.389,8,2014-11-15 17:52:35.410,3
2014-11-15 17:56:00.651,8157,271.9,40.10472,-88.22195,235.3766,0.29,321.6797,12,30,1416095760,-0.3122559,0.5679321,0.56604,-30.54812,41.47368,-7.044342,175.8827,178.965,15,-1.273186,-0.006585998,-0.2489614,-1.247757,-2.749166,-0.7714465,-1.146592,0.09191932,-0.2516541,-0.03616649,-0.1091603,-0.1655651,172.17.160.76,10.64.29.0,2,unknown,2,2014-11-15 17:55:53.389,8,2014-11-15 17:52:35.410,3
2014-11-15 17:56:00.684,8158,271.9333,40.10472,-88.22195,235.3766,0.29,321.6797,12,30,1416095760,-0.2895203,0.7054596,0.8367767,-31.88683,41.23279,-5.464569,175.8006,178.8829,15,-1.352559,-0.05484248,-0.4537843,-1.254243,-2.752802,-0.7467892,-1.2894,-0.001806109,-0.2898264,-0.03406652,-0.1113538,-0.1130633,172.17.160.76,10.64.29.0,2,unknown,2,2014-11-15 17:55:53.389,8,2014-11-15 17:52:35.410,3
2014-11-15 17:56:00.718,8159,271.9667,40.10472,-88.22195,235.3766,0.29,321.6797,12,30,1416095760,-0.2491913,0.5199127,0.7249146,-32.12712,41.12953,-4.758636,177.2029,180.2852,15,-1.19917,-0.1259377,-0.4313804,-1.258377,-2.756438,-0.6942292,-1.127992,-0.08920414,-0.4564823,-0.02135926,0.03411113,0.02956252,172.17.160.76,10.64.29.0,2,unknown,2,2014-11-15 17:55:53.389,8,2014-11-15 17:52:35.410,3
2014-11-15 17:56:00.751,8160,272,40.10472,-88.22195,235.3766,0.29,321.6797,12,30,1416095760,-0.161377,0.6877136,0.8990784,-33.36286,41.06068,-3.279694,302.7548,305.8371,15,-1.369441,-0.218155,-0.5532989,-1.261115,-2.759155,-0.6573704,-1.216663,-0.01523357,-0.3750882,0.04622117,-0.09112464,-0.009500069,172.17.160.76,10.64.29.0,2,unknown,2,2014-11-15 17:55:53.389,8,2014-11-15 17:52:35.410,3
2014-11-15 17:56:00.784,8161,272.0334,40.10472,-88.22195,235.3766,0.29,321.6797,12,30,1416095760,-0.3061829,0.5415344,0.5897369,-34.32397,40.02823,-1.73349,304.7628,307.8452,15,-1.263102,-0.4251359,-0.5176352,-1.259601,-2.765074,-0.6032458,-1.154348,-0.303917,-0.6093065,0.07531003,0.1477848,0.02883442,172.17.160.76,10.64.29.0,2,unknown,2,2014-11-15 17:55:53.389,8,2014-11-15 17:52:35.410,3
2014-11-15 17:56:00.817,8162,272.0667,40.10472,-88.22195,235.3766,0.29,321.6797,12,30,1416095760,-0.4175262,0.452652,0.8434448,-34.90752,39.71848,-0.8259277,304.7541,307.8364,15,-1.38258,-0.3248082,-0.4657083,-1.257692,-2.774467,-0.5642759,-1.227301,-0.2995349,-0.4550954,-0.04988964,-0.06175109,-0.1460456,172.17.160.76,10.64.29.0,2,unknown,2,2014-11-15 17:55:53.389,8,2014-11-15 17:52:35.410,3
2014-11-15 17:56:00.851,8163,272.1,40.10472,-88.22195,235.3766,0.29,321.6797,12,30,1416095760,-0.3695831,0.4581146,0.8429871,-36.52084,38.30742,0.6866455,303.8246,306.9069,15,-1.457343,-0.2115759,-0.3905284,-1.259326,-2.782872,-0.5230949,-1.338162,-0.1749479,-0.4264258,-0.1133969,-0.04691156,0.03230881,172.17.160.76,10.64.29.0,2,unknown,2,2014-11-15 17:55:53.389,8,2014-11-15 17:52:35.410,3
2014-11-15 17:56:00.884,8164,272.1334,40.10472,-88.22195,235.3766,0.29,321.6797,12,30,1416095760,-0.1179199,0.3881378,0.8697815,-37.55062,37.75676,2.098358,304.6708,307.7531,15,-1.518119,0.08976185,-0.3101642,-1.268955,-2.789642,-0.4660159,-1.453694,0.05073206,-0.2369225,0.04193234,-0.02550247,0.01333983,172.17.160.76,10.64.29.0,2,unknown,2,2014-11-15 17:55:53.389,8,2014-11-15 17:52:35.410,3
2014-11-15 17:56:00.918,8165,272.1667,40.10472,-88.22195,235.3766,0.29,321.6797,12,30,1416095760,-0.3531342,0.2300568,0.8213959,-38.68338,36.82753,3.745361,304.5945,307.6768,15,-1.338796,-0.4378652,-0.5195417,-1.273249,-2.79211,-0.4080322,-1.30385,-0.2893755,-0.521629,0.06314109,-0.1114492,-0.05017563,172.17.160.76,10.64.29.0,2,unknown,2,2014-11-15 17:55:53.389,8,2014-11-15 17:52:35.410,3
2014-11-15 17:56:00.951,8166,272.2,40.10472,-88.22195,235.3766,0.29,321.6797,12,30,1416095760,-0.2388458,0.3287811,0.9945679,-39.06097,36.38013,4.720154,304.7177,307.8,15,-1.713711,-0.1478912,-0.5569472,-1.272696,-2.80102,-0.3650817,-1.474411,-0.1956299,-0.5003285,-0.1107933,-0.1231236,0.08272169,172.17.160.76,10.64.29.0,2,unknown,2,2014-11-15 17:55:53.389,8,2014-11-15 17:52:35.410,3
2014-11-15 17:56:00.984,8167,272.2333,40.10472,-88.22195,235.3766,0.29,321.6797,12,30,1416095760,-0.3190918,0.2944794,0.8762665,-40.43402,35.07231,6.468079,303.7635,306.8458,15,-1.729507,-0.05894428,-0.5988789,-1.273466,-2.801997,-0.3302808,-1.702135,0.07385721,-0.5681146,0.07625613,0.004472494,0.1026404,172.17.160.76,10.64.29.0,2,unknown,2,2014-11-15 17:55:53.389,8,2014-11-15 17:52:35.410,3
2014-11-15 17:56:01.017,8168,272.2667,40.10472,-88.22195,235.3766,0.29,321.6797,12,30,1416095760,-0.4008942,0.1407623,0.8314514,-41.15486,34.34956,7.510101,304.0804,307.1627,15,-1.598195,-0.3091211,-0.3714079,-1.275208,-2.81047,-0.2642824,-1.457854,-0.3913417,-0.3846584,-0.08916731,-0.02937458,-0.08168273,172.17.160.76,10.64.29.0,6,unknown,2,2014-11-15 17:55:53.389,8,2014-11-15 17:52:35.410,3
2014-11-15 17:56:01.051,8169,272.3,40.10472,-88.22195,235.3766,0.29,321.6797,12,30,1416095760,-0.3908691,0.2030182,0.9889526,-42.11599,32.97293,9.056274,304.0361,307.1184,15,-1.514856,-0.169099,-0.3975197,-1.281399,-2.815928,-0.2011356,-1.517204,0.005972768,-0.3993277,-0.05128781,-0.01092411,0.07381326,172.17.160.76,10.64.29.0,6,unknown,2,2014-11-15 17:55:53.389,8,2014-11-15 17:52:35.410,3
2014-11-15 17:56:01.084,8170,272.3333,40.10472,-88.22195,235.3766,0.29,321.6797,12,30,1416095760,-0.3934479,0.06219482,0.9269409,-42.90548,31.56187,10.43439,303.6534,306.7357,15,-1.529083,-0.003158509,-0.2331243,-1.283067,-2.818083,-0.1706419,-1.448049,-0.1023036,-0.3810503,-0.07759026,0.03320325,0.05459766,172.17.160.76,10.64.29.0,6,unknown,2,2014-11-15 17:55:53.389,8,2014-11-15 17:52:35.410,3
2014-11-15 17:56:01.118,8171,272.3667,40.10473,-88.22194,235.6481,0.41,279.8438,12,10,1416095761,-0.1886597,-0.03761292,0.973526,-43.96959,30.08198,11.61081,303.4842,306.5665,15,-1.628256,0.1635682,-0.5343974,-1.289926,-2.817691,-0.1263623,-1.594328,0.1527773,-0.2401052,-0.0777179,-0.06383149,-0.0135015,172.17.160.76,10.64.29.0,6,unknown,2,2014-11-15 17:55:53.389,8,2014-11-15 17:52:35.410,3
2014-11-15 17:56:01.151,8172,272.4,40.10473,-88.22194,235.6481,0.41,279.8438,12,10,1416095761,-0.3648987,0.04577637,1.056931,-44.72477,29.25598,12.35031,303.3117,306.394,15,-1.383223,-0.001161671,-0.5234446,-1.290251,-2.811498,-0.06200474,-1.369422,-0.001092736,-0.6228298,0.1348503,-0.09957793,0.02933235,172.17.160.76,10.64.29.0,6,unknown,2,2014-11-15 17:55:53.389,8,2014-11-15 17:52:35.410,3
2014-11-15 17:56:01.185,8173,272.4333,40.10473,-88.22194,235.6481,0.41,279.8438,12,10,1416095761,-0.2654877,0.02334595,0.9543915,-46.54404,27.08776,13.93015,302.6175,305.6998,15,-1.362244,-0.1669296,-0.8056888,-1.284113,-2.809523,0.0127645,-1.407336,-0.00436596,-0.7776816,0.1329039,0.0495531,0.004505787,172.17.160.76,10.64.29.0,6,unknown,2,2014-11-15 17:55:53.389,8,2014-11-15 17:52:35.410,3
2014-11-15 17:56:01.218,8174,272.4667,40.10473,-88.22194,235.6481,0.41,279.8438,12,10,1416095761,-0.5077209,-0.0144043,1.188171,-47.81409,25.81438,15.10657,302.4043,305.4866,15,-1.109475,-0.277519,-0.5184945,-1.27817,-2.812286,0.04137843,-1.148811,-0.2129013,-0.656616,-0.06395918,0.03205876,0.02896956,172.17.160.76,10.64.29.0,6,unknown,2,2014-11-15 17:55:53.389,8,2014-11-15 17:52:35.410,3
2014-11-15 17:56:01.251,8175,272.5,40.10473,-88.22194,235.6481,0.41,279.8438,12,10,1416095761,-0.4008179,-0.1632538,0.9219513,-48.50061,24.78188,15.71161,302.0602,305.1425,15,-1.118098,-0.0537133,-0.4302422,-1.275601,-2.815715,0.06401952,-0.9852562,-0.06984404,-0.4155188,-0.1882363,0.0495715,0.242742,172.17.160.76,10.64.29.0,6,unknown,2,2014-11-15 17:55:53.389,8,2014-11-15 17:52:35.410,3
2014-11-15 17:56:01.284,8176,272.5334,40.10473,-88.22194,235.6481,0.41,279.8438,12,10,1416095761,-0.5499268,-0.1122894,0.9656372,-48.77523,23.95589,17.25784,302.3561,305.4384,15,-1.094512,-0.08971817,-0.1301207,-1.274097,-2.81768,0.1251048,-1.125273,-0.07104638,-0.2993206,-0.1054282,-0.05834203,0.003823848,172.17.160.76,10.64.29.0,6,unknown,2,2014-11-15 17:55:53.389,8,2014-11-15 17:52:35.410,3
2014-11-15 17:56:01.318,8177,272.5667,40.10473,-88.22194,235.6481,0.41,279.8438,12,10,1416095761,-0.2412262,-0.1736908,1.066269,-48.84388,23.19875,18.13174,302.4485,305.5308,15,-0.8959849,0.006464025,-0.1855547,-1.281532,-2.816123,0.1527423,-0.829632,0.08924202,-0.01935239,-0.2048425,0.0929297,0.1185844,172.17.160.76,10.64.29.0,6,unknown,2,2014-11-15 17:55:53.389,8,2014-11-15 17:52:35.410,3
2014-11-15 17:56:01.351,8178,272.6,40.10473,-88.22194,235.6481,0.41,279.8438,12,10,1416095761,-0.227951,-0.09927368,1.056656,-49.35877,21.85651,19.17368,302.9003,305.9826,15,-0.6976052,-0.2461746,-0.2810383,-1.280186,-2.815069,0.1893289,-0.8594235,-0.0455656,-0.4264985,0.1957422,-0.01967062,0.03991562,172.17.160.76,10.64.29.0,6,unknown,2,2014-11-15 17:55:53.389,8,2014-11-15 17:52:35.410,3
2014-11-15 17:56:01.384,8179,272.6334,40.10473,-88.22194,235.6481,0.41,279.8438,12,10,1416095761,-0.3910065,-0.1164398,1.034637,-49.87366,20.85846,19.94678,302.9236,306.0059,15,-0.5077069,-0.1891287,-0.3132935,-1.278035,-2.819839,0.2109234,-0.5220802,-0.1517633,-0.2563609,0.01280477,0.1574068,0.1374515,172.17.160.76,10.64.29.0,6,unknown,2,2014-11-15 17:55:53.389,8,2014-11-15 17:52:35.410,3
2014-11-15 17:56:01.418,8180,272.6667,40.10473,-88.22194,235.6481,0.41,279.8438,12,10,1416095761,-0.4417572,-0.192215,1.009995,-50.3199,20.34221,20.38379,302.6887,305.771,15,-0.4403955,-0.143758,-0.3515199,-1.274705,-2.823154,0.2209932,-0.3821154,-0.1387705,-0.356596,-0.08103551,0.1422487,0.1367566,172.17.160.76,10.64.29.0,6,unknown,2,2014-11-15 17:55:53.389,8,2014-11-15 17:52:35.410,3
2014-11-15 17:56:01.451,8181,272.7,40.10473,-88.22194,235.6481,0.41,279.8438,12,10,1416095761,-0.4156342,-0.2036896,1.068939,-50.59451,19.86038,20.78711,302.3883,305.4706,15,-0.1714756,-0.06312704,-0.06868666,-1.268291,-2.827492,0.2365693,-0.1856412,-0.02096079,-0.07966463,-0.1414011,0.04215389,0.0854095,172.17.160.76,10.64.29.0,6,unknown,2,2014-11-15 17:55:53.389,8,2014-11-15 17:52:35.410,3
2014-11-15 17:56:01.485,8182,272.7333,40.10473,-88.22194,235.6481,0.41,279.8438,12,10,1416095761,-0.371582,-0.2394562,1.006805,-50.93777,19.51621,20.85437,302.0915,305.1738,15,-0.1871486,0.05745024,-0.1433582,-1.268293,-2.827592,0.2392862,-0.1046855,0.00364595,-0.05223974,-0.1155684,0.03331969,0.1449332,172.17.160.76,10.64.29.0,6,unknown,2,2014-11-15 17:55:53.389,8,2014-11-15 17:52:35.410,3
2014-11-15 17:56:01.518,8183,272.7667,40.10473,-88.22194,235.6481,0.41,279.8438,12,10,1416095761,-0.24086,-0.2373352,0.9832764,-51.31536,19.34413,20.61908,301.8627,304.945,15,0.09618299,-0.01661014,-0.08324323,-1.26492,-2.821028,0.2442011,0.0862054,0.1002625,-0.050323,0.08448551,0.02525901,0.05909573,172.17.160.76,10.64.29.0,6,unknown,2,2014-11-15 17:55:53.389,8,2014-11-15 17:52:35.410,3
2014-11-15 17:56:01.551,8184,272.8,40.10473,-88.22194,235.6481,0.41,279.8438,12,10,1416095761,-0.4112854,-0.1855469,0.9992676,-51.55565,18.89674,20.31656,301.1381,304.2204,15,0.210104,0.008188155,-0.02834216,-1.261278,-2.821176,0.2391974,0.2641385,0.00673615,-0.04192855,-0.04538491,0.03021212,0.1066657,172.17.160.76,10.64.29.0,6,unknown,2,2014-11-15 17:55:53.389,8,2014-11-15 17:52:35.410,3
2014-11-15 17:56:01.584,8185,272.8333,40.10473,-88.22194,235.6481,0.41,279.8438,12,10,1416095761,-0.3098907,-0.1700745,1.028259,-51.487,18.62141,19.577,300.4307,303.513,15,0.335667,0.158815,0.08662091,-1.259162,-2.818267,0.2306233,0.3427536,0.1798444,0.09243529,-0.08163589,0.03559117,0.09060707,172.17.160.76,10.64.29.0,6,unknown,2,2014-11-15 17:55:53.389,8,2014-11-15 17:52:35.410,3
2014-11-15 17:56:01.618,8186,272.8667,40.10473,-88.22194,235.6481,0.41,279.8438,12,10,1416095761,-0.5095825,-0.1520538,1.049011,-51.28105,18.69024,19.30811,300.307,303.3893,15,0.5650104,0.2467126,0.0618109,-1.257154,-2.812617,0.2173237,0.5113343,0.2081466,0.05161667,-0.00319032,0.04270448,0.1142321,172.17.160.76,10.64.29.0,6,unknown,2,2014-11-15 17:55:53.389,8,2014-11-15 17:52:35.410,3
2014-11-15 17:56:01.651,8187,272.9,40.10473,-88.22194,235.6481,0.41,279.8438,12,10,1416095761,-0.4337463,-0.08547974,1.089111,-51.04077,19.48183,18.06439,300.0605,303.1428,15,0.6435603,0.4050806,0.2141427,-1.253317,-2.803819,0.1990146,0.6689395,0.3926723,0.1549619,-0.184736,0.04564962,0.1241393,172.17.160.76,10.64.29.0,6,unknown,2,2014-11-15 17:55:53.389,8,2014-11-15 17:52:35.410,3
2014-11-15 17:56:01.685,8188,272.9333,40.10473,-88.22194,235.6481,0.41,279.8438,12,10,1416095761,-0.3542175,-0.1542053,1.011398,-50.76616,19.75716,17.25769,299.8201,302.9024,15,0.8140482,0.1124365,0.1663195,-1.252644,-2.790021,0.1760765,0.7604144,0.4293378,0.2323005,0.02537387,0.09501363,0.1558984,172.17.160.76,10.64.29.0,6,unknown,2,2014-11-15 17:55:53.389,8,2014-11-15 17:52:35.410,3
2014-11-15 17:56:01.718,8189,272.9667,40.10473,-88.22194,235.6481,0.41,279.8438,12,10,1416095761,-0.3417969,-0.08221436,1.089264,-50.90347,20.17015,16.45096,299.6203,302.7026,15,1.180561,0.1362058,0.2414989,-1.247753,-2.782012,0.138411,1.108695,0.2064003,0.2807734,-0.005700717,-0.01623587,0.08430584,172.17.160.76,10.64.29.0,6,unknown,2,2014-11-15 17:55:53.389,8,2014-11-15 17:52:35.410,3
2014-11-15 17:56:01.751,8190,273,40.10473,-88.22194,235.6481,0.41,279.8438,12,10,1416095761,-0.3213501,-0.08830261,0.9533386,-50.73185,20.96172,15.14011,299.0987,302.181,15,1.15473,-0.05479401,0.2745573,-1.241984,-2.776658,0.1012881,1.258108,0.1484256,0.2109122,0.01326247,0.01890063,0.1599047,172.17.160.76,10.64.29.0,6,unknown,2,2014-11-15 17:55:53.389,8,2014-11-15 17:52:35.410,3
2014-11-15 17:56:01.784,8191,273.0334,40.10473,-88.22194,235.6481,0.41,279.8438,12,10,1416095761,-0.5415802,-0.02708435,1.062225,-50.25129,22.20071,13.79556,299.2755,302.3578,15,1.29699,0.03497636,0.4931626,-1.23668,-2.775974,0.06381864,1.220117,-0.02126088,0.3927356,-0.01684218,-0.03963348,0.007680601,172.17.160.76,10.64.29.0,6,unknown,2,2014-11-15 17:55:53.389,8,2014-11-15 17:52:35.410,3
2014-11-15 17:56:01.817,8192,273.0667,40.10473,-88.22194,235.6481,0.41,279.8438,12,10,1416095761,-0.5196075,0.003051758,1.067062,-50.25129,22.20071,13.79556,299.2755,302.3578,15,1.29699,0.03497636,0.4931626,-1.236437,-2.775845,0.05052281,1.265767,0.03135879,0.4692684,-0.07094011,-0.0554252,0.05752349,172.17.160.76,10.64.29.0,6,unknown,2,2014-11-15 17:55:53.389,8,2014-11-15 17:52:35.410,3
2014-11-15 17:56:01.851,8193,273.1,40.10473,-88.22194,235.6481,0.41,279.8438,12,10,1416095761,-0.5376587,-0.02345276,0.9421692,-48.46634,23.64619,12.24942,298.3399,301.4222,15,1.448709,0.04576642,0.3833186,-1.224652,-2.767504,-0.05741606,1.536086,0.1084894,0.2871488,0.02310163,-0.09963611,0.006636457,172.17.160.76,10.64.29.0,6,unknown,2,2014-11-15 17:55:53.389,8,2014-11-15 17:52:35.410,3
2014-11-15 17:56:01.885,8194,273.1334,40.10473,-88.22194,235.6481,0.41,279.8438,12,10,1416095761,-0.6548462,0.09985352,0.9793549,-47.16194,25.43583,10.63599,298.5662,301.6485,15,1.477427,0.2646953,0.8142642,-1.221758,-2.764911,-0.08901519,1.533128,0.1350393,0.5675308,-0.1712784,-0.1123504,0.0159604,172.17.160.76,10.64.29.0,6,unknown,2,2014-11-15 17:55:53.389,8,2014-11-15 17:52:35.410,3
2014-11-15 17:56:01.918,8195,273.1667,40.10473,-88.22194,235.6481,0.41,279.8438,12,10,1416095761,0.04177856,0.06015015,0.9915466,-45.72023,27.98264,8.820862,299.7426,302.825,15,1.729318,0.2675422,0.3611446,-1.229629,-2.746951,-0.1756615,1.603206,0.4838323,0.7495569,0.0488035,-0.08259646,0.1093671,172.17.160.76,10.64.29.0,6,unknown,2,2014-11-15 17:55:53.389,8,2014-11-15 17:52:35.410,3
2014-11-15 17:56:01.951,8196,273.2,40.10473,-88.22194,235.6481,0.41,279.8438,12,10,1416095761,-0.2166901,0.2151184,0.9008636,-45.10238,29.08395,7.745209,300.1097,303.192,15,1.728513,-0.1642728,0.1646225,-1.225791,-2.737607,-0.2115642,1.796102,0.3343089,0.3775899,0.4261003,-0.1498394,0.09254652,172.17.160.76,10.64.29.0,6,unknown,2,2014-11-15 17:55:53.389,8,2014-11-15 17:52:35.410,3
2014-11-15 17:56:01.985,8197,273.2333,40.10473,-88.22194,235.6481,0.41,279.8438,12,10,1416095761,-0.3229065,0.2745209,0.8772278,-44.58749,29.80669,7.106598,300.118,303.2003,15,1.69204,-0.2786641,0.2108619,-1.220866,-2.734867,-0.2295192,1.844333,0.1068801,0.2339731,0.4176394,-0.1370247,0.1098598,172.17.160.76,10.64.29.0,6,unknown,2,2014-11-15 17:55:53.389,8,2014-11-15 17:52:35.410,3
2014-11-15 17:56:02.017,8198,273.2667,40.10473,-88.22194,235.6481,0.41,279.8438,12,10,1416095761,-0.5369415,0.3332977,0.8270416,-44.00395,30.4606,5.594025,299.2523,302.3346,15,1.910407,-0.09522292,0.3150354,-1.193115,-2.733039,-0.3347605,1.878103,0.004453069,0.3214101,-0.01150478,0.03566904,0.03497938,172.17.160.76,10.64.29.0,6,unknown,2,2014-11-15 17:55:53.389,8,2014-11-15 17:52:35.410,3
2014-11-15 17:56:02.051,8199,273.3,40.10473,-88.22194,235.6481,0.41,279.8438,12,10,1416095761,-0.4382477,0.3797455,0.9284821,-42.76822,31.42425,4.115112,298.5744,301.6567,15,1.886698,0.05340916,0.4379773,-1.182715,-2.729709,-0.3729554,1.97719,-0.02845747,0.3314805,-0.09073178,-0.02031406,0.0084595,172.17.160.76,10.64.29.0,6,unknown,2,2014-11-15 17:55:53.389,8,2014-11-15 17:52:35.410,3
2014-11-15 17:56:02.084,8200,273.3333,40.10473,-88.22194,235.6481,0.41,279.8438,12,10,1416095761,0.1644745,0.3706818,0.877182,-42.08169,33.00739,2.098328,298.1309,301.2132,15,1.843839,0.1151817,0.1720311,-1.16105,-2.712639,-0.4681693,1.832436,0.2744476,0.3325559,0.356303,-0.04680391,0.1320118,172.17.160.76,10.64.29.0,6,unknown,2,2014-11-15 17:55:53.389,8,2014-11-15 17:52:35.410,3
2014-11-15 17:56:02.118,8201,273.3667,40.10473,-88.22194,235.4202,0.5,220.4297,12,10,1416095762,-0.553009,0.4084473,0.5754852,-41.32653,33.42038,1.022705,297.9512,301.0335,15,1.94536,-0.8148767,-0.1463839,-1.145835,-2.703229,-0.504447,1.982299,-0.0529324,0.0447321,0.536063,-0.1126417,0.08451536,172.17.160.76,10.64.29.0,6,unknown,2,2014-11-15 17:55:53.389,8,2014-11-15 17:52:35.410,3
2014-11-15 17:56:02.151,8202,273.4,40.10473,-88.22194,235.4202,0.5,220.4297,12,10,1416095762,-0.8968048,0.3661346,0.8939362,-40.3654,34.7282,0.08157349,296.4002,299.4825,15,1.845094,-0.1700679,0.3902511,-1.095763,-2.712732,-0.5947097,1.974884,-0.5933306,0.244657,-0.6452441,-0.1363334,-0.04251437,172.17.160.76,10.64.29.0,6,unknown,2,2014-11-15 17:55:53.389,8,2014-11-15 17:52:35.410,3
2014-11-15 17:56:02.184,8203,273.4333,40.10473,-88.22194,235.4202,0.5,220.4297,12,10,1416095762,-0.4469147,0.3912811,0.6218414,-38.44316,35.48536,-1.19574,295.7242,298.8065,15,1.640268,0.7619117,0.6750956,-1.083185,-2.698368,-0.6513418,1.775442,0.7409325,0.6143953,-0.3450252,-0.2321085,0.1299466,172.17.160.76,10.64.29.0,6,unknown,2,2014-11-15 17:55:53.389,8,2014-11-15 17:52:35.410,3
2014-11-15 17:56:02.218,8204,273.4667,40.10473,-88.22194,235.4202,0.5,220.4297,12,10,1416095762,-0.5180817,0.4485474,0.5422363,-37.79097,36.00162,-2.170502,295.4239,298.5062,15,1.404482,0.4761178,0.6649202,-1.081421,-2.689091,-0.6698183,1.707049,0.828675,0.6915401,-0.1892332,-0.230951,0.005199237,172.17.160.76,10.64.29.0,6,unknown,2,2014-11-15 17:55:53.389,8,2014-11-15 17:52:35.410,3
2014-11-15 17:56:02.251,8205,273.5,40.10473,-88.22194,235.4202,0.5,220.4297,12,10,1416095762,-0.09384155,0.6855011,0.7033997,-36.41793,36.75877,-4.523407,192.5742,195.6565,15,1.387957,1.166785,0.6643732,-1.073481,-2.642539,-0.7661752,1.38744,1.007159,0.6682011,-0.1820871,-0.09873404,0.3302976,172.17.160.76,10.64.29.0,6,unknown,2,2014-11-15 17:55:53.389,8,2014-11-15 17:52:35.410,3
2014-11-15 17:56:02.284,8206,273.5334,40.10473,-88.22194,235.4202,0.5,220.4297,12,10,1416095762,-0.2456055,0.8408966,0.3317108,-35.83438,37.06853,-5.968781,178.178,181.2603,15,1.497461,0.9284765,0.349571,-1.070994,-2.6175,-0.7978933,1.454726,1.233532,0.6807971,0.2555653,-0.03038564,0.09889899,172.17.160.76,10.64.29.0,6,unknown,2,2014-11-15 17:55:53.389,8,2014-11-15 17:52:35.410,3
2014-11-15 17:56:02.318,8207,273.5667,40.10473,-88.22194,235.4202,0.5,220.4297,12,10,1416095762,-0.6086884,0.6362152,0.5240021,-34.66729,37.82568,-9.195587,176.3175,179.3998,15,1.414941,0.6677088,0.4270565,-1.039764,-2.55689,-0.8579369,1.582791,0.6289597,0.1272861,-0.07170241,0.08067854,-0.1427975,172.17.160.76,10.64.29.0,6,unknown,2,2014-11-15 17:55:53.389,8,2014-11-15 17:52:35.410,3
2014-11-15 17:56:02.351,8208,273.6,40.10473,-88.22194,235.4202,0.5,220.4297,12,10,1416095762,-0.1031647,0.859024,0.4798737,-33.32859,37.86011,-12.52328,176.6398,179.7221,15,0.9487913,0.9172289,0.9385659,-1.015569,-2.516489,-0.9015422,1.32752,0.8735561,0.7037916,-0.1246082,-0.1637402,-0.009340799,172.17.160.76,10.64.29.0,6,unknown,2,2014-11-15 17:55:53.389,8,2014-11-15 17:52:35.410,3
2014-11-15 17:56:02.384,8209,273.6334,40.10473,-88.22194,235.4202,0.5,220.4297,12,10,1416095762,-0.1706238,0.9065399,0.4573364,-31.02875,38.37636,-15.04422,178.0288,181.1111,15,1.141805,0.221273,0.3885765,-1.020891,-2.485326,-0.9560348,0.9743356,0.6530864,0.7538427,0.2936772,0.11711,0.02062899,172.17.160.76,10.64.29.0,6,unknown,2,2014-11-15 17:55:53.389,8,2014-11-15 17:52:35.410,3
2014-11-15 17:56:02.418,8210,273.6667,40.10473,-88.22194,235.4202,0.5,220.4297,12,10,1416095762,-0.3799744,0.6520081,0.2042847,-30.10196,38.54843,-16.15353,176.4207,179.5031,15,1.232286,0.08529466,0.3981365,-1.001841,-2.45924,-0.9922569,1.312018,0.2016397,0.3701903,0.06444407,-0.04665856,-0.01250276,172.17.160.76,10.64.29.0,6,unknown,2,2014-11-15 17:55:53.389,8,2014-11-15 17:52:35.410,3
2014-11-15 17:56:02.451,8211,273.7,40.10473,-88.22194,235.4202,0.5,220.4297,12,10,1416095762,-0.3769684,0.848526,0.2124329,-28.14537,38.99583,-18.00223,176.9808,180.0631,15,0.9046519,0.08847021,0.5172045,-0.9844305,-2.441588,-1.017146,1.161307,0.1303125,0.4839575,-0.04124533,-0.1986025,-0.1978649,172.17.160.76,10.64.29.0,6,unknown,2,2014-11-15 17:55:53.389,8,2014-11-15 17:52:35.410,3
2014-11-15 17:56:02.484,8212,273.7333,40.10473,-88.22194,235.4202,0.5,220.4297,12,10,1416095762,-0.4108429,0.8416748,0.3305664,-26.73801,38.75493,-19.31308,174.058,177.1404,15,0.7835563,0.2977031,0.7798843,-0.975916,-2.423989,-1.069718,0.824809,0.2940164,0.7546344,-0.1280407,-0.002889087,0.008396178,172.17.160.76,10.64.29.0,6,unknown,2,2014-11-15 17:55:53.389,8,2014-11-15 17:52:35.410,3
2014-11-15 17:56:02.518,8213,273.7667,40.10473,-88.22194,235.4202,0.5,220.4297,12,10,1416095762,-0.1877899,0.8952026,0.2620087,-25.81121,38.99583,-19.81735,173.333,176.4153,15,0.5683071,0.7015837,0.49834,-0.9769599,-2.412056,-1.103109,0.768781,0.5451697,0.6616948,-0.02323054,-0.04376671,-0.09155934,172.17.160.76,10.64.29.0,6,unknown,2,2014-11-15 17:55:53.389,8,2014-11-15 17:52:35.410,3
2014-11-15 17:56:02.551,8214,273.8,40.10473,-88.22194,235.4202,0.5,220.4297,12,10,1416095762,-0.1824188,0.8817139,0.3270874,-24.43817,38.78934,-21.16183,172.215,175.2973,15,0.4126019,0.5410569,0.4779096,-0.9732407,-2.378003,-1.136897,0.6211993,0.8727002,0.5461476,0.08341693,-0.01554862,-0.01947802,172.17.160.76,10.64.29.0,2,unknown,2,2014-11-15 17:55:53.389,8,2014-11-15 17:52:35.410,3
2014-11-15 17:56:02.584,8215,273.8333,40.10473,-88.22194,235.4202,0.5,220.4297,12,10,1416095762,-0.2414551,0.8572845,0.1917114,-23.47705,39.34,-22.17026,172.3479,175.4302,15,0.3132336,-0.01724663,0.4105913,-0.9730375,-2.362823,-1.152064,0.479367,0.6077995,0.4943325,0.103181,-0.03189109,0.03767639,172.17.160.76,10.64.29.0,2,unknown,2,2014-11-15 17:55:53.389,8,2014-11-15 17:52:35.410,3
2014-11-15 17:56:02.618,8216,273.8667,40.10473,-88.22194,235.4202,0.5,220.4297,12,10,1416095762,-0.2960052,0.8143921,0.2576447,-23.47705,39.34,-22.17026,172.3479,175.4302,15,0.4126877,-0.2304561,0.6065317,-0.9756297,-2.361147,-1.170225,0.4041622,-0.1252866,0.5003069,0.08820619,-0.05053804,-0.09420288,172.17.160.76,10.64.29.0,2,unknown,2,2014-11-15 17:55:53.389,8,2014-11-15 17:52:35.410,3
2014-11-15 17:56:02.651,8217,273.9,40.10473,-88.22194,235.4202,0.5,220.4297,12,10,1416095762,-0.3084259,0.913269,0.179657,-21.38317,39.3056,-23.07773,171.0501,174.1324,15,0.281379,-0.4098504,0.622001,-0.9845919,-2.374465,-1.206938,0.6722175,-0.1675899,0.6848395,-0.008226277,-0.1341004,0.1776814,172.17.160.76,10.64.29.0,2,unknown,2,2014-11-15 17:55:53.389,8,2014-11-15 17:52:35.410,3
2014-11-15 17:56:02.685,8218,273.9333,40.10473,-88.22194,235.4202,0.5,220.4297,12,10,1416095762,-0.5203094,0.8773651,0.0332489,-21.00558,39.27118,-23.17856,169.6538,172.7361,15,0.3542955,-0.007464308,0.5835106,-1.006238,-2.406008,-1.226999,0.3619631,-0.372829,0.6435227,-0.08224876,-0.02821259,-0.07025546,172.17.160.76,10.64.29.0,2,unknown,2,2014-11-15 17:55:53.389,8,2014-11-15 17:52:35.410,3
2014-11-15 17:56:02.718,8219,273.9667,40.10473,-88.22194,235.4202,0.5,220.4297,12,10,1416095762,-0.126358,0.9945374,0.157486,-19.90715,39.27118,-23.31308,167.4836,170.5659,15,-0.1082269,0.5869692,0.3336171,-1.031593,-2.424899,-1.252083,0.06902181,0.533253,0.4466478,-0.06539031,-0.1266262,-0.06773795,172.17.160.76,10.64.29.0,2,unknown,2,2014-11-15 17:55:53.389,8,2014-11-15 17:52:35.410,3
2014-11-15 17:56:02.751,8220,274,40.10473,-88.22194,235.4202,0.5,220.4297,12,10,1416095762,-0.3987579,1.056854,0.1932831,-18.80873,39.75301,-23.31308,167.239,170.3214,15,0.02242488,0.6248143,0.1465064,-1.052428,-2.416805,-1.258549,0.06483984,0.7198815,0.1132793,-0.05343024,0.05897449,-0.1200716,172.17.160.76,10.64.29.0,2,unknown,2,2014-11-15 17:55:53.389,8,2014-11-15 17:52:35.410,3
2014-11-15 17:56:02.784,8221,274.0334,40.10473,-88.22194,235.4202,0.5,220.4297,12,10,1416095762,-0.2009735,0.8486023,0.5032349,-17.40136,39.92509,-23.88455,169.2523,172.3347,15,-0.00735352,0.5581166,0.4594038,-1.064441,-2.407648,-1.264927,0.073683,0.6876867,0.354033,-0.1803874,0.05057999,0.08313775,172.17.160.76,10.64.29.0,2,unknown,2,2014-11-15 17:55:53.389,8,2014-11-15 17:52:35.410,3
2014-11-15 17:56:02.818,8222,274.0667,40.10473,-88.22194,235.4202,0.5,220.4297,12,10,1416095762,-0.09069824,0.8473053,-0.128067,-16.57753,39.71858,-24.28787,170.1457,173.228,15,0.1620147,0.1431779,0.398203,-1.108578,-2.43179,-1.283374,0.2912979,0.2416999,0.5472436,0.1244682,-0.08908937,-0.02977644,172.17.160.76,10.64.29.0,2,unknown,2,2014-11-15 17:55:53.389,8,2014-11-15 17:52:35.410,3
2014-11-15 17:56:02.851,8223,274.1,40.10473,-88.22194,235.4202,0.5,220.4297,12,10,1416095762,-0.1088715,0.7796021,0.06199646,-15.68506,39.09909,-24.62399,170.127,173.2093,15,-0.1208327,0.2011235,0.1734717,-1.120871,-2.439257,-1.291157,0.07673185,0.22602,0.2857784,0.08760434,-0.1138497,-0.3387546,172.17.160.76,10.64.29.0,2,unknown,2,2014-11-15 17:55:53.389,8,2014-11-15 17:52:35.410,3
2014-11-15 17:56:02.884,8224,274.1334,40.10473,-88.22194,235.4202,0.5,220.4297,12,10,1416095762,-0.1937866,1.092529,0.2238312,-15.17018,39.13348,-25.32986,170.2728,173.3551,15,-0.2277652,0.5293533,0.0121323,-1.139688,-2.446521,-1.290342,-0.2366243,0.5278197,-0.01185846,0.08911884,-0.1158218,-0.0379722,172.17.160.76,10.64.29.0,2,unknown,2,2014-11-15 17:55:53.389,8,2014-11-15 17:52:35.410,3
2014-11-15 17:56:02.918,8225,274.1667,40.10473,-88.22194,235.4202,0.5,220.4297,12,10,1416095762,-0.05055237,0.7380371,-0.07951355,-15.10152,38.99583,-25.2626,169.8334,172.9157,15,-0.1284214,0.07582019,0.183455,-1.158754,-2.444029,-1.289614,0.09599516,0.3173772,0.2840641,-0.0155392,0.1318013,0.01115891,172.17.160.76,10.64.29.0,2,unknown,2,2014-11-15 17:55:53.389,8,2014-11-15 17:52:35.410,3
2014-11-15 17:56:02.951,8226,274.2,40.10473,-88.22194,235.4202,0.5,220.4297,12,10,1416095762,-0.01763916,0.7886658,0.3651581,-14.38067,39.58092,-25.63229,170.6635,173.7458,15,-0.3303926,0.2479989,0.03544907,-1.171445,-2.452569,-1.293059,-0.06166111,0.142558,0.1998767,0.1237672,-0.2236411,-0.2911448,172.17.160.76,10.64.29.0,2,unknown,2,2014-11-15 17:55:53.389,8,2014-11-15 17:52:35.410,3
2014-11-15 17:56:02.984,8227,274.2333,40.10473,-88.22194,235.4202,0.5,220.4297,12,10,1416095762,-0.2896881,1.149368,0.2011566,-13.76281,39.44325,-25.29623,171.3809,174.4632,15,-0.02646357,-0.1585465,0.2508354,-1.214114,-2.482213,-1.283379,-0.3173748,0.04225733,0.1281252,-0.01098155,0.1715749,0.2318963,172.17.160.76,10.64.29.0,2,unknown,2,2014-11-15 17:55:53.389,8,2014-11-15 17:52:35.410,3
2014-11-15 17:56:03.018,8228,274.2667,40.10473,-88.22194,235.4202,0.5,220.4297,12,10,1416095762,0.04502869,0.7212677,-0.02944946,-13.65983,39.89066,-25.53152,171.8028,174.8851,15,-0.2333534,-0.1241923,0.284697,-1.2378,-2.507102,-1.286954,-0.002439607,-0.09581519,0.2971173,-0.04054037,-0.008036332,-0.1902333,172.17.160.76,10.64.29.0,2,unknown,2,2014-11-15 17:55:53.389,8,2014-11-15 17:52:35.410,3
2014-11-15 17:56:03.051,8229,274.3,40.10473,-88.22194,235.4202,0.5,220.4297,12,10,1416095762,-0.3627625,1.090286,0.3675079,-14.00309,39.95949,-25.46432,170.545,173.6273,15,-0.4627498,-0.005960687,0.02611549,-1.281618,-2.548346,-1.282067,-0.4214784,0.07225318,0.01297118,0.08491772,-0.09183104,0.09749085,172.17.160.76,10.64.29.0,2,unknown,2,2014-11-15 17:55:53.389,8,2014-11-15 17:52:35.410,3
2014-11-15 17:56:03.084,8230,274.3333,40.10473,-88.22194,235.4202,0.5,220.4297,12,10,1416095762,-0.1548004,1.208572,0.1060028,-14.00309,40.30365,-25.1954,170.1911,173.2734,15,-0.1111183,0.1646228,0.1244149,-1.306012,-2.568273,-1.278327,0.02148823,0.2468491,0.2266511,-0.06034536,0.140976,0.07792722,172.17.160.76,10.64.29.0,2,unknown,2,2014-11-15 17:55:53.389,8,2014-11-15 17:52:35.410,3
2014-11-15 17:56:03.118,8231,274.3667,40.10473,-88.22192,235.4677,0.49,207.4219,8,10,1416095763,-0.06054688,0.7650452,0.2841949,-13.65982,41.12964,-25.12808,170.6316,173.7139,15,-0.140665,-0.1134448,0.3066976,-1.321838,-2.581888,-1.277949,-0.08843727,-0.1307273,0.1709388,-0.02620379,0.1321432,-0.1418318,172.17.160.76,10.64.29.0,2,unknown,2,2014-11-15 17:55:53.389,8,2014-11-15 17:52:35.410,3
2014-11-15 17:56:03.151,8232,274.4,40.10473,-88.22192,235.4677,0.49,207.4219,8,10,1416095763,-0.4035797,1.232834,0.2431488,-13.28224,41.43941,-24.55673,170.5667,173.649,15,-0.0780775,-0.2069207,0.03210867,-1.363449,-2.624958,-1.278824,-0.09687363,-0.1735392,0.129347,0.1041716,-0.03516216,0.04420496,172.17.160.76,10.64.29.0,2,unknown,2,2014-11-15 17:55:53.389,8,2014-11-15 17:52:35.410,3
2014-11-15 17:56:03.184,8233,274.4333,40.10473,-88.22192,235.4677,0.49,207.4219,8,10,1416095763,0.02151489,0.8950195,0.3672638,-13.21359,40.95758,-24.15329,169.7132,172.7955,15,-0.1939484,0.5343377,0.1118112,-1.367615,-2.633281,-1.278821,-0.01132039,-0.1401861,0.04852959,-0.2634851,0.2751566,-0.008302351,172.17.160.76,10.64.29.0,2,unknown,2,2014-11-15 17:55:53.389,8,2014-11-15 17:52:35.410,3
2014-11-15 17:56:03.218,8234,274.4667,40.10473,-88.22192,235.4677,0.49,207.4219,8,10,1416095763,-0.1186371,1.03923,0.4438324,-12.97331,40.99199,-23.8508,169.607,172.6893,15,-0.0009970876,0.002492719,0.3311992,-1.387657,-2.630418,-1.276901,-0.1642148,0.7557988,0.07186541,0.1632282,-0.06210318,0.114611,172.17.160.76,10.64.29.0,2,unknown,2,2014-11-15 17:55:53.389,8,2014-11-15 17:52:35.410,3
2014-11-15 17:56:03.251,8235,274.5,40.10473,-88.22192,235.4677,0.49,207.4219,8,10,1416095763,-0.07611084,0.9115753,0.02236938,-12.63004,40.78551,-23.8508,170.2431,173.3254,15,0.3399123,-0.2664439,0.3380598,-1.403204,-2.638895,-1.277664,0.06575914,0.06922649,0.34762,0.02057762,0.08188686,0.1906275,172.17.160.76,10.64.29.0,2,unknown,2,2014-11-15 17:55:53.389,8,2014-11-15 17:52:35.410,3
2014-11-15 17:56:03.285,8236,274.5334,40.10473,-88.22192,235.4677,0.49,207.4219,8,10,1416095763,-0.1730804,0.9653625,0.3618317,-11.60027,41.12967,-24.72482,170.3911,173.4734,15,-0.2771206,0.057487,-0.002905509,-1.437828,-2.687596,-1.293514,-0.1575708,-0.1726621,0.1030219,-0.06055026,-0.08660465,0.003712554,172.17.160.76,10.64.29.0,2,unknown,2,2014-11-15 17:55:53.389,8,2014-11-15 17:52:35.410,3
2014-11-15 17:56:03.318,8237,274.5667,40.10473,-88.22192,235.4677,0.49,207.4219,8,10,1416095763,-0.1956787,1.028076,0.4774933,-11.60027,41.06084,-25.12814,169.7475,172.8298,15,-0.08306106,0.3862612,0.06815695,-1.444965,-2.690756,-1.290153,-0.1674975,0.3780341,-0.0001892837,-0.05790621,0.04774376,0.221892,172.17.160.76,10.64.29.0,2,unknown,2,2014-11-15 17:55:53.389,8,2014-11-15 17:52:35.410,3
2014-11-15 17:56:03.351,8238,274.6,40.10473,-88.22192,235.4677,0.49,207.4219,8,10,1416095763,0.07641602,0.7223358,-0.1385498,-11.46296,41.26733,-25.19547,170.7504,173.8327,15,-0.02098944,-0.2100094,0.1900394,-1.464571,-2.698934,-1.298156,0.1948504,-0.002455504,0.2926036,0.0776528,-0.03664129,-0.1531873,172.17.160.76,10.64.29.0,2,unknown,2,2014-11-15 17:55:53.389,8,2014-11-15 17:52:35.410,3
2014-11-15 17:56:03.384,8239,274.6334,40.10473,-88.22192,235.4677,0.49,207.4219,8,10,1416095763,-0.2196808,0.8659363,0.4058838,-11.3943,41.74916,-25.06094,170.7581,173.8404,15,-0.376739,-0.3011114,0.06351399,-1.482523,-2.72209,-1.298712,-0.1981007,-0.2481836,0.09003787,0.07984173,-0.2767659,-0.2199398,172.17.160.76,10.64.29.0,2,unknown,2,2014-11-15 17:55:53.389,8,2014-11-15 17:52:35.410,3
2014-11-15 17:56:03.418,8240,274.6667,40.10473,-88.22192,235.4677,0.49,207.4219,8,10,1416095763,-0.1726685,1.011093,0.2468414,-11.08538,41.71474,-24.69119,170.5907,173.673,15,-0.03864114,0.1316219,0.1207853,-1.509721,-2.751746,-1.290979,-0.07314894,0.1546792,0.1182284,-0.1300544,0.04794268,0.2061509,172.17.160.76,10.64.29.0,2,unknown,2,2014-11-15 17:55:53.389,8,2014-11-15 17:52:35.410,3
2014-11-15 17:56:03.451,8241,274.7,40.10473,-88.22192,235.4677,0.49,207.4219,8,10,1416095763,-0.06788635,0.9049072,0.1862793,-11.3943,41.81801,-24.5903,169.7896,172.8719,15,-0.2472532,0.05104055,-0.01048167,-1.522685,-2.759121,-1.292472,-0.06564216,0.1375296,0.09900317,-0.02566573,0.03060924,-0.09679671,172.17.160.76,10.64.29.0,2,unknown,2,2014-11-15 17:55:53.389,8,2014-11-15 17:52:35.410,3
2014-11-15 17:56:03.485,8242,274.7333,40.10473,-88.22192,235.4677,0.49,207.4219,8,10,1416095763,-0.1675415,0.9080963,0.3353729,-11.63459,41.71474,-24.69119,169.3571,172.4394,15,-0.2624641,0.0198251,0.07645243,-1.528793,-2.762501,-1.289877,-0.1805104,0.117757,0.0059187,0.03471345,-0.05589363,-0.07127649,172.17.160.76,10.64.29.0,2,unknown,2,2014-11-15 17:55:53.389,8,2014-11-15 17:52:35.410,3
2014-11-15 17:56:03.518,8243,274.7667,40.10473,-88.22192,235.4677,0.49,207.4219,8,10,1416095763,-0.002578735,1.048615,0.2338715,-11.32565,42.09332,-24.92642,169.8737,172.956,15,-0.1838135,-0.1350505,0.1156787,-1.555356,-2.78454,-1.284631,-0.182372,0.04415787,0.2507403,-0.06500652,-0.03481866,0.0968556,172.17.160.76,10.64.29.0,2,unknown,2,2014-11-15 17:55:53.389,8,2014-11-15 17:52:35.410,3
2014-11-15 17:56:03.551,8244,274.8,40.10473,-88.22192,235.4677,0.49,207.4219,8,10,1416095763,-0.1543427,1.018875,0.2404327,-10.81076,42.33423,-24.82559,170.9087,173.991,15,-0.1579515,-0.1719507,0.01454672,-1.575056,-2.805066,-1.282422,-0.1061283,-0.1052438,0.0288797,0.05301627,0.1080497,-0.01537449,172.17.160.76,10.64.29.0,2,unknown,2,2014-11-15 17:55:53.389,8,2014-11-15 17:52:35.410,3
2014-11-15 17:56:03.584,8245,274.8333,40.10473,-88.22192,235.4677,0.49,207.4219,8,10,1416095763,-0.05523682,0.9882355,0.3262329,-10.70779,42.02449,-24.5903,169.989,173.0713,15,-0.1860151,0.04504151,0.1845701,-1.59261,-2.822097,-1.276876,-0.1841377,0.1496989,0.155769,0.01738506,0.01253484,0.01792284,172.17.160.76,10.64.29.0,2,unknown,2,2014-11-15 17:55:53.389,8,2014-11-15 17:52:35.410,3
2014-11-15 17:56:03.618,8246,274.8667,40.10473,-88.22192,235.4677,0.49,207.4219,8,10,1416095763,-0.06704712,1.057739,0.316864,-10.74212,42.12773,-24.69113,170.2067,173.289,15,-0.05266934,-0.09790099,0.1185677,-1.607456,-2.834437,-1.276028,-0.063843,0.04253939,0.1844757,0.02646691,0.05967101,0.05904697,172.17.160.76,10.64.29.0,2,unknown,2,2014-11-15 17:55:53.389,8,2014-11-15 17:52:35.410,3
2014-11-15 17:56:03.651,8247,274.9,40.10473,-88.22192,235.4677,0.49,207.4219,8,10,1416095763,-0.07067871,0.9612122,0.2078552,-10.91374,42.02448,-24.92642,169.8579,172.9402,15,-0.005820871,-0.2265951,0.1049768,-1.61543,-2.84307,-1.277297,0.06846764,-0.1058037,0.1067723,0.01803949,0.1005018,0.04035601,172.17.160.76,10.64.29.0,2,unknown,2,2014-11-15 17:55:53.389,8,2014-11-15 17:52:35.410,3
2014-11-15 17:56:03.684,8248,274.9333,40.10473,-88.22192,235.4677,0.49,207.4219,8,10,1416095763,-0.1606903,1.025116,0.3130035,-10.77644,43.19461,-24.85928,168.7781,171.8604,15,-0.1569957,-0.1610296,0.05387548,-1.637237,-2.872431,-1.291832,-0.09576883,-0.1916748,0.120742,-0.03300694,-0.006629226,-0.07567201,172.17.160.76,10.64.29.0,2,unknown,2,2014-11-15 17:55:53.389,8,2014-11-15 17:52:35.410,3
2014-11-15 17:56:03.718,8249,274.9667,40.10473,-88.22192,235.4677,0.49,207.4219,8,10,1416095763,-0.006698608,0.866333,0.229126,-10.94808,43.29788,-24.69119,168.0784,171.1607,15,0.06211158,-0.04490835,0.2489792,-1.606827,-2.840685,-1.297104,-0.02007294,0.03617734,0.1831997,-0.08138923,0.02399112,0.1166429,172.17.160.76,10.64.29.0,2,unknown,2,2014-11-15 17:55:53.389,8,2014-11-15 17:52:35.410,3
2014-11-15 17:56:03.751,8250,275,40.10473,-88.22192,235.4677,0.49,207.4219,8,10,1416095763,0.0254364,0.9917603,0.2303009,-10.43318,43.60762,-24.65762,168.5138,171.5961,15,-0.1916014,0.006823019,-0.09371851,-1.62267,-2.854555,-1.297718,0.0248068,0.09441435,0.158916,0.06965575,-0.09661233,-0.02953651,172.17.160.76,10.64.29.0,2,unknown,2,2014-11-15 17:55:53.389,8,2014-11-15 17:52:35.410,3
2014-11-15 17:56:03.785,8251,275.0334,40.10473,-88.22192,235.4677,0.49,207.4219,8,10,1416095763,-0.08808899,0.9869232,0.1637115,-10.43319,43.19463,-24.79202,168.5132,171.5955,15,-0.1037584,-0.01451263,-0.2406443,-1.618396,-2.847864,-1.293451,-0.08097397,0.02639668,-0.1318923,0.05395812,0.02966933,-0.03313357,172.17.160.76,10.64.29.0,2,unknown,2,2014-11-15 17:55:53.389,8,2014-11-15 17:52:35.410,3
2014-11-15 17:56:03.818,8252,275.0667,40.10473,-88.22192,235.4677,0.49,207.4219,8,10,1416095763,-0.1438141,0.9139099,0.227005,-10.57049,43.19463,-24.85928,168.0304,171.1127,15,-0.03357074,-0.0567003,-0.1944241,-1.606194,-2.834913,-1.291051,-0.03696762,0.05224452,-0.22427,0.04063173,0.06249483,-0.0281358,172.17.160.76,10.64.29.0,2,unknown,2,2014-11-15 17:55:53.389,8,2014-11-15 17:52:35.410,3
2014-11-15 17:56:03.851,8253,275.1,40.10473,-88.22192,235.4677,0.49,207.4219,8,10,1416095763,-0.01416016,0.9960785,0.4098511,-11.15403,43.02257,-25.09464,168.2127,171.295,15,-0.2636479,0.09730019,-0.2182271,-1.580521,-2.808408,-1.287202,-0.151005,0.1160969,-0.2181994,-0.01087411,-0.03354228,-0.02430795,172.17.160.76,10.64.29.0,2,unknown,2,2014-11-15 17:55:53.389,8,2014-11-15 17:52:35.410,3
2014-11-15 17:56:03.885,8254,275.1334,40.10473,-88.22192,235.4677,0.49,207.4219,8,10,1416095763,0.0426178,0.9552307,0.2512512,-11.25702,43.26347,-24.85934,168.1446,171.2269,15,-0.1507051,0.0473574,-0.2114827,-1.571142,-2.796388,-1.282744,-0.196858,0.1640565,-0.201853,0.0301676,-0.02238237,0.1553576,172.17.160.76,10.64.29.0,2,unknown,2,2014-11-15 17:55:53.389,8,2014-11-15 17:52:35.410,3
2014-11-15 17:56:03.918,8255,275.1667,40.10473,-88.22192,235.4677,0.49,207.4219,8,10,1416095763,-0.01942444,0.8665771,0.154541,-11.01674,43.0914,-24.82565,169.6333,172.7156,15,-0.2692139,-0.2928156,-0.2393673,-1.542164,-2.766588,-1.276307,-0.07340786,-0.1697586,-0.2168111,0.1051375,-0.04735872,-0.1798861,172.17.160.76,10.64.29.0,2,unknown,2,2014-11-15 17:55:53.389,8,2014-11-15 17:52:35.410,3
2014-11-15 17:56:03.951,8256,275.2,40.10473,-88.22192,235.4677,0.49,207.4219,8,10,1416095763,-0.3690796,1.194519,0.5056915,-11.39433,42.98816,-24.18704,169.8837,172.966,15,-0.3186475,-0.5664709,-0.1779958,-1.527648,-2.763562,-1.262841,-0.2558666,-0.3289544,-0.2031671,-0.006288718,-0.09684567,0.1314987,172.17.160.76,10.64.29.0,2,unknown,2,2014-11-15 17:55:53.389,8,2014-11-15 17:52:35.410,3
2014-11-15 17:56:03.984,8257,275.2333,40.10473,-88.22192,235.4677,0.49,207.4219,8,10,1416095763,-0.1520691,0.9245453,0.3498535,-12.08084,43.19464,-23.98526,169.5115,172.5938,15,0.0666986,0.03093368,0.1612584,-1.523371,-2.773214,-1.255951,-0.07415175,-0.2850078,0.0001883869,-0.2594739,0.2472607,0.06074502,172.17.160.76,10.64.29.0,2,unknown,2,2014-11-15 17:55:53.389,8,2014-11-15 17:52:35.410,3
2014-11-15 17:56:04.018,8258,275.2667,40.10473,-88.22192,235.4677,0.49,207.4219,8,10,1416095763,0.07385254,0.7950134,0.2470856,-12.28681,43.19463,-23.85086,169.1083,172.1906,15,-0.1846287,0.1091805,0.09467671,-1.531679,-2.781939,-1.259007,-0.1348132,-0.1628108,-0.003187034,0.01873161,-0.0115395,-0.1053271,172.17.160.76,10.64.29.0,2,unknown,2,2014-11-15 17:55:53.389,8,2014-11-15 17:52:35.410,3
2014-11-15 17:56:04.051,8259,275.3,40.10473,-88.22192,235.4677,0.49,207.4219,8,10,1416095763,-0.004577637,0.8782806,0.2483368,-12.56141,43.40112,-24.25418,169.0608,172.1431,15,-0.2824197,0.009504822,-0.02542946,-1.539919,-2.788394,-1.257451,-0.1178412,0.1759345,0.1110503,0.1804741,-0.1562942,-0.04212996,172.17.160.76,10.64.29.0,2,unknown,2,2014-11-15 17:55:53.389,8,2014-11-15 17:52:35.410,3
2014-11-15 17:56:04.084,8260,275.3333,40.10473,-88.22192,235.4677,0.49,207.4219,8,10,1416095763,-0.1695251,1.021729,0.3188629,-13.00764,43.84854,-24.48947,168.6677,171.75,15,-0.2740718,-0.4350503,-0.07875287,-1.540933,-2.791582,-1.250534,-0.1910332,-0.2561084,-0.120231,0.09595927,-0.08031753,-0.06382456,172.17.160.76,10.64.29.0,2,unknown,2,2014-11-15 17:55:53.389,8,2014-11-15 17:52:35.410,3
2014-11-15 17:56:04.118,8261,275.3667,40.10473,-88.22191,235.6523,0.35,185.2734,8,10,1416095764,-0.1538086,0.9099274,0.2914276,-12.80169,43.98621,-24.55673,168.7969,171.8792,10,-0.2358133,-0.2793384,0.00047351,-1.543442,-2.807087,-1.241607,-0.2521421,-0.2733199,-0.01076029,-0.06339298,0.07542374,0.01350537,172.17.160.76,10.64.29.0,2,unknown,2,2014-11-15 17:55:53.389,8,2014-11-15 17:52:35.410,3
2014-11-15 17:56:04.151,8262,275.4,40.10473,-88.22191,235.6523,0.35,185.2734,8,10,1416095764,-0.08222961,1.061295,0.3638916,-13.04198,44.22711,-24.05246,168.4511,171.5334,10,-0.2356224,-0.2595884,-0.05780471,-1.549916,-2.819678,-1.236294,-0.2200792,-0.2160517,-0.02331668,-0.04270762,-0.03902584,0.009015309,172.17.160.76,10.64.29.0,2,unknown,2,2014-11-15 17:55:53.389,8,2014-11-15 17:52:35.410,3
2014-11-15 17:56:04.185,8263,275.4333,40.10473,-88.22191,235.6523,0.35,185.2734,8,10,1416095764,-0.09906006,0.9944763,0.4746246,-13.28226,44.46802,-23.54825,168.3223,171.4046,10,-0.0955686,-0.1073547,-0.1519994,-1.545172,-2.818673,-1.224888,-0.1544404,0.1518068,-0.1320196,0.07028562,0.06228372,0.1217262,172.17.160.76,10.64.29.0,2,unknown,2,2014-11-15 17:55:53.389,8,2014-11-15 17:52:35.410,3
2014-11-15 17:56:04.218,8264,275.4667,40.10473,-88.22191,235.6523,0.35,185.2734,8,10,1416095764,0.05851746,1.003616,0.3008118,-13.93444,44.57127,-23.0441,167.9666,171.0489,10,-0.1730597,-0.2369612,-0.2946303,-1.536608,-2.812445,-1.222998,-0.04248884,-0.2411242,-0.2374718,0.02357483,0.1214287,0.1120527,172.17.160.76,10.64.29.0,2,unknown,2,2014-11-15 17:55:53.389,8,2014-11-15 17:52:35.410,3
2014-11-15 17:56:04.251,8265,275.5,40.10473,-88.22191,235.6523,0.35,185.2734,8,10,1416095764,-0.1890106,0.751297,0.310379,-14.20906,44.43361,-22.57352,167.909,170.9913,10,-0.09404767,-0.5327318,-0.05765025,-1.517796,-2.800311,-1.219712,0.08377455,-0.3078284,-0.05678259,0.01336123,-0.1683096,-0.137649,172.17.160.76,10.64.29.0,2,unknown,2,2014-11-15 17:55:53.389,8,2014-11-15 17:52:35.410,3
2014-11-15 17:56:04.285,8266,275.5334,40.10473,-88.22191,235.6523,0.35,185.2734,8,10,1416095764,-0.3878479,1.160934,0.7228394,-14.0031,44.02061,-23.04416,167.5787,170.661,10,-0.1174763,-0.516813,-0.06172462,-1.516602,-2.808632,-1.218064,-0.1871752,-0.5181032,-0.05689296,-0.07609884,-0.1871354,-0.01611063,172.17.160.76,10.64.29.0,2,unknown,2,2014-11-15 17:55:53.389,8,2014-11-15 17:52:35.410,3
2014-11-15 17:56:04.318,8267,275.5667,40.10473,-88.22191,235.6523,0.35,185.2734,8,10,1416095764,-0.1583405,0.8265381,0.6045837,-14.48365,43.8141,-22.3718,166.1812,169.2635,10,0.0989889,0.1259606,0.08308823,-1.5151,-2.827082,-1.212367,0.02525033,0.2752816,0.0515761,0.02084451,0.1336347,-0.2797177,172.17.160.76,10.64.29.0,2,unknown,2,2014-11-15 17:55:53.389,8,2014-11-15 17:52:35.410,3
2014-11-15 17:56:04.351,8268,275.6,40.10473,-88.22191,235.6523,0.35,185.2734,8,10,1416095764,-0.06785583,0.8655701,0.3128967,-15.17017,43.88293,-22.43912,164.9511,168.0334,10,-0.2716216,-0.1782134,-0.1188073,-1.522792,-2.825056,-1.216332,0.1657611,0.1926956,0.09944316,-0.0502998,-0.1112945,0.2747394,172.17.160.76,10.64.29.0,2,unknown,2,2014-11-15 17:55:53.389,8,2014-11-15 17:52:35.410,3
