time,timestamp,recordtime,lat,long,alt,speed,course,verticalAccuracy,horizontalAccuracy,locTimeStamp,accelerationX,accelerationY,accelerationZ,HeadingX,HeadingY,HeadingZ,TrueHeading,MagneticHeading,HeadingAccuracy,RotationX,RotationY,RotationZ,motionYaw,motionRoll,motionPitch,motionRotationRateX,motionRotationRateY,motionRotationRateZ,motionUserAccelerationX,motionUserAccelerationY,motionUserAccelerationZ,en0,pdp_ip0,DeviceOrientation,Activity,Activity Confidence,Activity Start,Steps,Last Step Date,State
2014-11-13 21:50:45.119,2032,67.73334,0,0,0,0,0,0,0,-1,0.8542175,-0.4930267,0.09666443,34.67067,-8.464241,5.697571,317.2896,320.3727,10,-0.02985776,-0.0830038,-0.01837048,0.225234,1.69388,0.5250871,0.02914257,-0.00214702,-0.003559037,-0.00680549,0.005942322,-0.007920954,172.17.160.76,0.0.0.0,4,walking,0,2014-11-13 21:50:42.466,0,2014-11-13 21:44:53.658,0
2014-11-13 21:50:45.152,2033,67.76667,0,0,0,0,0,0,0,-1,0.8529816,-0.4919891,0.09855652,34.42948,-8.843246,4.993713,317.2645,320.3477,10,-0.02773682,-0.0893645,-0.01628896,0.2246622,1.693777,0.5247803,0.03339798,-0.01277662,-0.003631769,-0.004130905,0.007629912,-0.009972389,172.17.160.76,0.0.0.0,4,walking,0,2014-11-13 21:50:42.466,0,2014-11-13 21:44:53.658,0
2014-11-13 21:50:45.186,2034,67.8,0,0,0,0,0,0,0,-1,0.8578033,-0.5005341,0.08595276,34.5673,-8.567604,4.993713,317.2742,320.3574,10,-0.05014253,-0.07972599,-0.007662447,0.2235769,1.691845,0.5245308,0.01737414,-0.01696172,0.00489713,-0.004641599,0.003339868,-0.01668957,172.17.160.76,0.0.0.0,4,walking,0,2014-11-13 21:50:42.466,0,2014-11-13 21:44:53.658,0
2014-11-13 21:50:45.219,2035,67.83334,0,0,0,0,0,0,0,-1,0.8539429,-0.4883423,0.0955658,34.39503,-8.8088,4.893127,317.2867,320.3699,10,-0.05440199,-0.07334825,-0.007612912,0.2235935,1.691449,0.524601,0.01310817,-0.009506855,0.007075333,-0.001428414,0.0003336404,-0.01822178,172.17.160.76,0.0.0.0,4,walking,0,2014-11-13 21:50:42.466,0,2014-11-13 21:44:53.658,0
2014-11-13 21:50:45.252,2036,67.86667,0,0,0,0,0,0,0,-1,0.8511047,-0.4817505,0.09295654,34.05047,-8.602074,4.759064,317.308,320.3912,10,-0.04911561,-0.1062436,-0.001437042,0.2235899,1.689956,0.5241392,0.004543346,-0.04242296,0.01011417,-0.006008702,0.02125044,-0.003691224,172.17.160.76,0.0.0.0,4,walking,0,2014-11-13 21:50:42.466,0,2014-11-13 21:44:53.658,0
2014-11-13 21:50:45.285,2037,67.9,0,0,0,0,0,0,0,-1,0.8585663,-0.4882507,0.08718872,33.91265,-8.946625,4.960114,317.3056,320.3888,10,-0.04376373,-0.08607283,-0.003473827,0.2232993,1.688664,0.5238528,0.01627303,-0.02434269,0.01334668,-0.006039102,0.01534145,-0.01047111,172.17.160.76,0.0.0.0,4,walking,0,2014-11-13 21:50:42.466,0,2014-11-13 21:44:53.658,0
2014-11-13 21:50:45.319,2038,67.93333,0,0,0,0,0,0,0,-1,0.8569641,-0.4794159,0.08869934,34.15384,-8.498711,4.926636,317.3105,320.3937,10,-0.04806953,-0.1157756,0.002754774,0.2230605,1.687316,0.5237772,0.00559587,-0.02643465,0.01761792,-0.0008268484,0.01529122,-0.009224301,172.17.160.76,0.0.0.0,4,walking,0,2014-11-13 21:50:42.466,0,2014-11-13 21:44:53.658,0
2014-11-13 21:50:45.352,2039,67.96667,0,0,0,0,0,0,0,-1,0.8660736,-0.4919281,0.08947754,34.39503,-8.808807,4.624969,317.3322,320.4154,10,-0.03526398,-0.1328475,-0.005874933,0.2228749,1.685692,0.5235003,0.02050347,-0.04769685,0.01744628,-0.001096193,0.0137849,-0.01113977,172.17.160.76,0.0.0.0,4,walking,0,2014-11-13 21:50:42.466,0,2014-11-13 21:44:53.658,0
2014-11-13 21:50:45.386,2040,68,0,0,0,0,0,0,0,-1,0.8605652,-0.5042725,0.08789062,34.25721,-8.67099,4.490875,317.3603,320.4435,10,-0.03741928,-0.1338531,0.001558216,0.2224304,1.684493,0.52333,0.02797934,-0.06264274,0.008845823,0.005506206,0.007839071,-0.008790056,172.17.160.76,0.0.0.0,4,walking,0,2014-11-13 21:50:42.466,0,2014-11-13 21:44:53.658,0
2014-11-13 21:50:45.419,2041,68.03334,0,0,0,0,0,0,0,-1,0.8575134,-0.5013123,0.08784485,34.39503,-8.739899,4.222717,317.4501,320.5333,10,-0.04272882,-0.1147396,-0.0004442153,0.2214845,1.681316,0.5244197,0.01837689,-0.03920991,0.01643582,0.0009031246,0.002648686,-0.01127469,172.17.160.76,0.0.0.0,4,walking,0,2014-11-13 21:50:42.466,0,2014-11-13 21:44:53.658,0
2014-11-13 21:50:45.452,2042,68.06667,0,0,0,0,0,0,0,-1,0.8570099,-0.506485,0.09494019,34.46394,-8.739891,4.490875,317.4711,320.5543,10,-0.03736735,-0.1158848,-0.01108514,0.2211001,1.680393,0.5246755,0.02371914,-0.04776269,0.01000194,-0.00278042,-0.0003800397,-0.006819875,172.17.160.76,0.0.0.0,4,walking,0,2014-11-13 21:50:42.466,0,2014-11-13 21:44:53.658,0
2014-11-13 21:50:45.485,2043,68.10001,0,0,0,0,0,0,0,-1,0.8542786,-0.5036774,0.09082031,34.77404,-8.774345,4.457397,317.5049,320.5881,10,-0.0330192,-0.08096489,-0.03002421,0.2198272,1.679769,0.5247857,0.03233966,-0.01393206,-0.01214129,-0.003150645,-0.003458509,-0.0004941037,172.17.160.76,0.0.0.0,4,walking,0,2014-11-13 21:50:42.466,0,2014-11-13 21:44:53.658,0
2014-11-13 21:50:45.519,2044,68.13334,0,0,0,0,0,0,0,-1,0.8572388,-0.4981232,0.08656311,34.63621,-8.567612,4.524445,317.5214,320.6046,10,-0.03623018,-0.08944812,-0.0279339,0.2190116,1.679582,0.5244204,0.02701866,-0.01715071,-0.01638326,-0.005104932,-9.737909e-05,-0.008379057,172.17.160.76,0.0.0.0,4,walking,0,2014-11-13 21:50:42.466,0,2014-11-13 21:44:53.658,0
2014-11-13 21:50:45.552,2045,68.16667,0,0,0,0,0,0,0,-1,0.8494263,-0.4951782,0.08683777,34.18829,-7.912971,4.624969,317.5328,320.616,10,-0.03518648,-0.07235915,-0.01617151,0.2178284,1.67941,0.523814,0.03339235,-0.003261873,-0.005719522,-0.0065214,0.003405953,-0.004235565,172.17.160.76,0.0.0.0,4,walking,0,2014-11-13 21:50:42.466,0,2014-11-13 21:44:53.658,0
2014-11-13 21:50:45.586,2046,68.2,0,0,0,0,0,0,0,-1,0.8551636,-0.4953156,0.08383179,34.46394,-7.844063,4.289825,317.5972,320.6804,10,-0.04052479,-0.07446571,-0.01403965,0.2172522,1.67952,0.5237086,0.02804927,-0.002165844,-0.001447795,-0.01143099,0.004916946,-0.007128148,172.17.160.76,0.0.0.0,4,walking,0,2014-11-13 21:50:42.466,0,2014-11-13 21:44:53.658,0
2014-11-13 21:50:45.619,2047,68.23334,0,0,0,0,0,0,0,-1,0.8604279,-0.4919891,0.08322144,34.8774,-7.706238,4.490936,317.6204,320.7036,10,-0.03200587,-0.06592922,-0.008719189,0.2168647,1.679377,0.52373,0.02589689,-0.002118575,0.004929432,-0.005696472,0.004798113,-0.01001012,172.17.160.76,0.0.0.0,4,walking,0,2014-11-13 21:50:42.466,0,2014-11-13 21:44:53.658,0
2014-11-13 21:50:45.652,2048,68.26667,0,0,0,0,0,0,0,-1,0.8565674,-0.4979553,0.08287048,35.04967,-8.360886,4.524475,317.6738,320.757,10,-0.05012495,-0.08189913,-0.01404285,0.2156241,1.679587,0.5236089,0.02026896,-0.0008251168,0.005800888,-0.005004536,0.0001308095,-0.01302053,172.17.160.76,0.0.0.0,4,walking,0,2014-11-13 21:50:42.466,0,2014-11-13 21:44:53.658,0
2014-11-13 21:50:45.686,2049,68.3,0,0,0,0,0,0,0,-1,0.8605194,-0.4907684,0.09135437,34.63621,-8.498703,4.457428,317.7143,320.7975,10,-0.03837189,-0.0851647,-0.02365739,0.2154127,1.678957,0.5236085,0.01389417,-0.01685139,-0.005935925,-0.005185885,0.001656385,-0.007915439,172.17.160.76,0.0.0.0,4,walking,0,2014-11-13 21:50:42.466,0,2014-11-13 21:44:53.658,0
2014-11-13 21:50:45.719,2050,68.33334,0,0,0,0,0,0,0,-1,0.8594818,-0.4959106,0.08927917,34.42948,-8.63652,4.189331,317.7484,320.8316,10,-0.0468996,-0.09687302,-0.02687156,0.2145282,1.678441,0.5227587,0.02242406,-0.02644463,-0.00920511,-0.003458851,0.004582394,-0.002954556,172.17.160.76,0.0.0.0,4,walking,0,2014-11-13 21:50:42.466,0,2014-11-13 21:44:53.658,0
2014-11-13 21:50:45.752,2051,68.36667,0,0,0,0,0,0,0,-1,0.8545685,-0.4905701,0.09628296,34.63621,-8.636528,4.256317,317.8093,320.8925,10,-0.04371659,-0.09151367,-0.02048637,0.2143876,1.678175,0.5225805,0.01603695,-0.02646591,-0.01236605,-0.003541539,0.005404499,-0.005191589,172.17.160.76,0.0.0.0,4,walking,0,2014-11-13 21:50:42.466,0,2014-11-13 21:44:53.658,0
2014-11-13 21:50:45.786,2052,68.4,0,0,0,0,0,0,0,-1,0.8575592,-0.4958801,0.09031677,34.32611,-8.670982,4.155731,317.8421,320.9253,10,-0.03730822,-0.06706106,-0.01825863,0.2135873,1.677797,0.521971,0.01921405,-0.01576989,-0.002769897,-0.007312056,0.009835434,0.003234321,172.17.160.76,0.0.0.0,4,walking,0,2014-11-13 21:50:42.466,0,2014-11-13 21:44:53.658,0
2014-11-13 21:50:45.820,2053,68.43333,0,0,0,0,0,0,0,-1,0.856781,-0.4820557,0.09422302,34.70512,-8.843246,4.323303,317.8794,320.9626,10,-0.06502347,-0.09366817,-0.02572534,0.2127516,1.677937,0.5216442,-0.001206386,-0.01674621,-0.003904968,-0.005919965,0.01176455,-0.001283038,172.17.160.76,0.0.0.0,4,walking,0,2014-11-13 21:50:42.466,0,2014-11-13 21:44:53.658,0
2014-11-13 21:50:45.852,2054,68.46667,0,0,0,0,0,0,0,-1,0.8547821,-0.4911346,0.08888245,34.36057,-8.63652,4.18927,317.9375,321.0207,10,-0.05008261,-0.06816521,-0.0245855,0.2126462,1.677507,0.5207731,0.01162061,-0.005128111,-0.01238635,-0.007260825,0.01399983,-0.0005462305,172.17.160.76,0.0.0.0,4,walking,0,2014-11-13 21:50:42.466,0,2014-11-13 21:44:53.658,0
2014-11-13 21:50:45.885,2055,68.5,0,0,0,0,0,0,0,-1,0.8694153,-0.4898987,0.08996582,34.94631,-8.53315,4.356842,317.9684,321.0515,10,-0.0629321,-0.0669524,-0.005424326,0.2124501,1.677513,0.5204742,0.0009226293,-0.002902574,0.0004026446,-0.008338859,0.004478512,-0.004885389,172.17.160.76,0.0.0.0,4,walking,0,2014-11-13 21:50:42.466,0,2014-11-13 21:44:53.658,0
2014-11-13 21:50:45.919,2056,68.53334,0,0,0,0,0,0,0,-1,0.8861694,-0.4814606,0.1081848,35.2564,-8.429779,4.792603,317.9703,321.0535,10,-0.07679891,-0.06053791,-0.001092695,0.2124529,1.677526,0.5203093,-0.0001785826,0.01102219,0.01533784,0.01239381,0.00772289,-0.0002972815,172.17.160.76,0.0.0.0,4,walking,0,2014-11-13 21:50:42.466,0,2014-11-13 21:44:53.658,0
2014-11-13 21:50:45.952,2057,68.56667,0,0,0,0,0,0,0,-1,0.982254,-0.3420563,0.1307678,35.66987,-8.498688,4.926636,317.9623,321.0455,10,-0.2238174,0.09578592,0.006649913,0.2157423,1.678997,0.5188175,-0.1378277,0.1303463,0.03329323,0.08656242,0.1035806,0.03611928,172.17.160.76,0.0.0.0,4,walking,0,2014-11-13 21:50:42.466,0,2014-11-13 21:44:53.658,0
2014-11-13 21:50:45.986,2058,68.60001,0,0,0,0,0,0,0,-1,1.099487,-0.2299194,0.09365845,35.1875,-8.567596,5.26178,317.9093,320.9925,10,-0.2375963,0.1339187,-0.0100814,0.2174954,1.679706,0.5192404,-0.1612157,0.1663904,0.02083281,0.1192016,0.1541645,0.03639924,172.17.160.76,0.0.0.0,4,walking,0,2014-11-13 21:50:42.466,0,2014-11-13 21:44:53.658,0
2014-11-13 21:50:46.019,2059,68.63334,0,0,0,0,0,0,0,-1,1.206223,-0.1648407,0.05270386,34.73958,-8.808784,5.228302,316.2205,319.3036,10,-0.4003812,0.2566867,-0.08525205,0.2239858,1.683937,0.5200263,-0.2186205,0.3235719,0.007014644,0.2372296,0.2669835,-0.004316651,172.17.160.76,0.0.0.0,4,walking,0,2014-11-13 21:50:42.466,0,2014-11-13 21:44:53.658,0
2014-11-13 21:50:46.052,2060,68.66667,0,0,0,0,0,0,0,-1,1.189072,-0.03579712,0.07611084,34.49839,-8.429779,6.13327,312.8468,315.93,10,-0.7971089,0.4206777,-0.345089,0.2423684,1.688087,0.5179173,-0.6005955,0.3570387,-0.2291509,0.3986989,0.4303592,-0.05209933,172.17.160.76,0.0.0.0,4,walking,0,2014-11-13 21:50:42.466,0,2014-11-13 21:44:53.658,0
2014-11-13 21:50:46.086,2061,68.7,0,0,0,0,0,0,0,-1,1.211029,0.001373291,-0.01522827,34.60176,-8.602051,6.904175,309.2978,312.381,10,-1.079096,1.261081,-0.6559291,0.2723539,1.693454,0.5085315,-0.9701232,0.991261,-0.5513639,0.3049158,0.4636559,-0.03544173,172.17.160.76,0.0.0.0,4,walking,0,2014-11-13 21:50:42.466,0,2014-11-13 21:44:53.658,0
2014-11-13 21:50:46.119,2062,68.73334,0,0,0,0,0,0,0,-1,1.396255,-0.06149292,-0.2492218,34.49839,-8.154137,7.675079,307.7771,310.8603,10,-1.290919,2.099812,-0.9022904,0.3246405,1.735854,0.4861837,-1.133706,2.089058,-0.8209558,0.4441932,0.4508673,-0.2706968,172.17.160.76,0.0.0.0,4,walking,0,2014-11-13 21:50:42.466,0,2014-11-13 21:44:53.658,0
2014-11-13 21:50:46.152,2063,68.76667,0,0,0,0,0,0,0,-1,1.355698,-0.1165466,-0.3159637,34.53284,-7.56839,9.451538,303.8113,306.8945,10,-1.752017,2.161586,-1.053092,0.35625,1.764794,0.4729695,-1.35409,2.204177,-0.943882,0.5227353,0.3940389,-0.4208412,172.17.160.76,0.0.0.0,4,walking,0,2014-11-13 21:50:42.466,0,2014-11-13 21:44:53.658,0
2014-11-13 21:50:46.186,2064,68.8,0,0,0,0,0,0,0,-1,1.287247,-0.107666,-0.3149567,34.60175,-7.361664,10.59113,306.4428,309.526,10,-2.301307,2.381299,-1.260051,0.4174801,1.804515,0.453326,-1.87059,2.272282,-1.103996,0.4811442,0.3214114,-0.5241681,172.17.160.76,0.0.0.0,4,walking,0,2014-11-13 21:50:42.466,0,2014-11-13 21:44:53.658,0
2014-11-13 21:50:46.218,2065,68.83334,0,0,0,0,0,0,0,-1,1.145432,-0.1396637,-0.3984222,33.74038,-6.982666,13.172,298.9687,302.0519,10,-3.098075,2.756948,-1.376099,0.5610542,1.870285,0.4230127,-2.70526,2.745764,-1.353133,0.323099,0.3109459,-0.6102279,172.17.160.76,0.0.0.0,4,walking,0,2014-11-13 21:50:42.466,0,2014-11-13 21:44:53.658,0
2014-11-13 21:50:46.252,2066,68.86667,0,0,0,0,0,0,0,-1,1.021408,-0.1938629,-0.4364777,32.70672,-7.396126,15.04895,294.36,297.4432,10,-3.687433,2.773837,-1.427938,0.6684036,1.911304,0.4126471,-3.225391,2.843695,-1.362346,0.2530034,0.2339977,-0.7291816,172.17.160.76,0.0.0.0,4,walking,0,2014-11-13 21:50:42.466,0,2014-11-13 21:44:53.658,0
2014-11-13 21:50:46.285,2067,68.9,0,0,0,0,0,0,0,-1,0.7346802,-0.3204041,-0.503479,31.12178,-7.671761,17.19406,287.0809,290.1641,10,-4.192547,2.886437,-1.463668,0.7939669,1.946457,0.4108284,-3.807205,2.827375,-1.449418,0.08627444,0.2125861,-0.7693422,172.17.160.76,0.0.0.0,4,walking,0,2014-11-13 21:50:42.466,0,2014-11-13 21:44:53.658,0
2014-11-13 21:50:46.319,2068,68.93333,0,0,0,0,0,0,0,-1,0.7471466,-0.5424194,-0.6308136,30.43267,-8.291954,17.6633,283.2217,286.3049,10,-4.576468,3.225519,-1.329882,0.9357216,1.977903,0.4175013,-4.258074,3.104204,-1.402751,-0.1047153,0.08507358,-0.8654224,172.17.160.76,0.0.0.0,4,walking,0,2014-11-13 21:50:42.466,0,2014-11-13 21:44:53.658,0
2014-11-13 21:50:46.353,2069,68.96667,0,0,0,0,0,0,0,-1,0.6781158,-0.6810913,-0.6076813,27.98635,-9.773521,19.03751,270.5309,273.6141,10,-4.707725,3.200362,-1.292371,0.9853472,1.989781,0.4224662,-4.380719,3.241716,-1.351678,-0.09408277,0.01169564,-0.9263774,172.17.160.76,0.0.0.0,4,walking,0,2014-11-13 21:50:42.466,0,2014-11-13 21:44:53.658,0
2014-11-13 21:50:46.386,2070,69,0,0,0,0,0,0,0,-1,0.5587921,-0.8756104,-0.5482483,25.3333,-12.28876,19.60733,252.0452,255.1284,10,-5.206319,3.226952,-1.037731,1.30626,2.0437,0.4819351,-5.046844,3.207038,-1.059582,-0.2086649,-0.3646303,-0.9458461,172.17.160.76,0.0.0.0,4,walking,0,2014-11-13 21:50:42.466,0,2014-11-13 21:44:53.658,0
2014-11-13 21:50:46.419,2071,69.03334,0,0,0,0,0,0,0,-1,0.6128845,-0.8889313,-0.5841217,24.23074,-13.73587,19.60733,242.6043,245.6875,10,-5.386341,3.42204,-0.681495,1.538722,2.066129,0.5465062,-5.327836,3.52384,-0.7734461,-0.1650837,-0.3615964,-0.976282,172.17.160.76,0.0.0.0,4,walking,0,2014-11-13 21:50:42.466,0,2014-11-13 21:44:53.658,0
2014-11-13 21:50:46.452,2072,69.06667,0,0,0,0,0,0,0,-1,0.5617676,-1.061707,-0.6125336,22.50798,-17.45703,18.93698,220.906,223.9892,10,-5.34655,3.209836,-0.4970021,1.656615,2.072257,0.5860578,-5.295488,3.405276,-0.5714486,-0.08756377,-0.3437849,-1.004647,172.17.160.76,0.0.0.0,4,walking,0,2014-11-13 21:50:42.466,0,2014-11-13 21:44:53.658,0
2014-11-13 21:50:46.486,2073,69.10001,0,0,0,0,0,0,0,-1,0.4344635,-1.186859,-0.6175995,21.47432,-19.38654,17.86441,209.1219,212.2051,10,-5.198958,3.024933,-0.3488595,1.895136,2.058729,0.672169,-5.212228,3.089313,-0.3345909,-0.1706688,-0.4992484,-0.9632138,172.17.160.76,0.0.0.0,4,walking,0,2014-11-13 21:50:42.466,0,2014-11-13 21:44:53.658,0
2014-11-13 21:50:46.519,2074,69.13334,0,0,0,0,0,0,0,-1,0.3386993,-1.233582,-0.5485535,20.09611,-22.34969,14.84781,185.1261,188.2093,10,-4.538002,2.722265,-0.427232,2.139212,2.021681,0.7500783,-4.790989,2.991862,-0.4088623,-0.2910093,-0.5386103,-0.9218311,172.17.160.76,0.0.0.0,4,walking,0,2014-11-13 21:50:42.466,0,2014-11-13 21:44:53.658,0
2014-11-13 21:50:46.552,2075,69.16667,0,0,0,0,0,0,0,-1,0.225708,-1.364227,-0.4842834,18.85572,-24.07245,11.69714,165.735,168.8182,10,-4.105946,2.252347,-0.2943933,2.318442,1.980786,0.7956361,-4.336178,2.618957,-0.3732543,-0.3417071,-0.5523232,-0.8068452,172.17.160.76,0.0.0.0,4,walking,0,2014-11-13 21:50:42.466,0,2014-11-13 21:44:53.658,0
2014-11-13 21:50:46.586,2076,69.2,0,0,0,0,0,0,0,-1,0.1703186,-1.443329,-0.4420166,18.64899,-24.76154,10.28943,159.4389,162.5221,10,-3.919554,2.121729,-0.2724265,2.433192,1.946281,0.8217627,-4.043522,2.323063,-0.280375,-0.4077827,-0.63188,-0.7339972,172.17.160.76,0.0.0.0,4,walking,0,2014-11-13 21:50:42.466,0,2014-11-13 21:44:53.658,0
2014-11-13 21:50:46.619,2077,69.23334,0,0,0,0,0,0,0,-1,0.008789062,-1.597855,-0.1823273,17.95988,-25.72629,7.406891,141.2783,144.3615,10,-3.036256,1.271846,-0.336468,2.641692,1.869744,0.8597935,-3.208222,1.624436,-0.2977968,-0.514549,-0.7609537,-0.5811759,172.17.160.76,0.0.0.0,4,walking,0,2014-11-13 21:50:42.466,0,2014-11-13 21:44:53.658,0
2014-11-13 21:50:46.652,2078,69.26667,0,0,0,0,0,0,0,-1,-0.1288147,-1.545685,-0.05865479,17.95988,-26.55321,4.457336,129.7132,132.7964,10,-2.420383,-0.3985682,-0.3072343,2.811533,1.77426,0.8749717,-2.477988,0.1118608,-0.3254802,-0.6741521,-0.8345101,-0.2967321,172.17.160.76,0.0.0.0,4,walking,0,2014-11-13 21:50:42.466,0,2014-11-13 21:44:53.658,0
2014-11-13 21:50:46.685,2079,69.3,0,0,0,0,0,0,0,-1,-0.2318115,-1.507736,0.2117767,17.99434,-26.38094,3.150177,126.9007,129.9839,10,-1.827435,-1.221806,-0.237363,2.916754,1.676445,0.8773597,-2.003597,-0.9396494,-0.2393835,-0.8188018,-0.7495465,-0.05014593,172.17.160.76,0.0.0.0,4,walking,0,2014-11-13 21:50:42.466,0,2014-11-13 21:44:53.658,0
2014-11-13 21:50:46.719,2080,69.33334,0,0,0,0,0,0,0,-1,-0.09461975,-1.51857,0.3630219,17.92543,-26.1053,0.9380188,128.5943,131.6775,10,-0.7622846,-1.772582,-0.07866073,3.005604,1.554269,0.8721707,-0.9415366,-1.605673,-0.146027,-0.8235896,-0.7200825,0.3504885,172.17.160.76,0.0.0.0,4,walking,0,2014-11-13 21:50:42.466,0,2014-11-13 21:44:53.658,0
2014-11-13 21:50:46.752,2081,69.36667,0,0,0,0,0,0,0,-1,-0.08666992,-1.453827,0.3911285,17.47751,-25.58847,-0.8384094,127.1884,130.2716,10,0.07594297,-1.912146,0.4896043,3.035033,1.46141,0.8755027,-0.1234234,-1.825426,0.3550176,-0.7237725,-0.733355,0.4454989,172.17.160.76,0.0.0.0,4,walking,0,2014-11-13 21:50:42.466,0,2014-11-13 21:44:53.658,0
2014-11-13 21:50:46.786,2082,69.4,0,0,0,0,0,0,0,-1,0.012146,-1.385681,0.3201294,17.23632,-25.82966,-1.542328,135.3918,138.475,10,1.169192,-2.449515,0.8786136,3.03039,1.427741,0.886805,0.4480873,-1.912726,0.6506943,-0.7121066,-0.6787701,0.4812163,172.17.160.76,0.0.0.0,4,walking,0,2014-11-13 21:50:42.466,0,2014-11-13 21:44:53.658,0
2014-11-13 21:50:46.819,2083,69.43333,0,0,0,0,0,0,0,-1,0.187973,-1.527985,0.1990814,16.54722,-26.10529,-2.011566,138.8374,141.9206,10,1.60792,-2.752983,0.9624142,3.005291,1.403824,0.9057068,1.231614,-2.378801,0.8926312,-0.5964009,-0.5988196,0.4226947,172.17.160.76,0.0.0.0,4,walking,0,2014-11-13 21:50:42.466,0,2014-11-13 21:44:53.658,0
2014-11-13 21:50:46.852,2084,69.46667,0,0,0,0,0,0,0,-1,0.3455811,-2.043777,-0.06756592,15.27238,-26.75995,-1.240662,150.248,153.3312,10,3.810285,-5.129957,1.096627,2.823241,1.386977,0.9784376,3.196589,-4.099657,1.081077,-0.2915738,-0.8734989,0.2111076,172.17.160.76,0.0.0.0,4,walking,0,2014-11-13 21:50:42.466,0,2014-11-13 21:44:53.658,0
2014-11-13 21:50:46.886,2085,69.5,0,0,0,0,0,0,0,-1,0.2243805,-2.011581,-0.1217194,13.37734,-27.07004,0.3346863,159.0124,162.0956,10,5.307631,-7.283743,0.3461939,2.543449,1.416762,1.046309,4.445095,-6.128172,0.8650997,-0.1239449,-1.182423,0.0156893,172.17.160.76,0.0.0.0,4,walking,0,2014-11-13 21:50:42.466,0,2014-11-13 21:44:53.658,0
2014-11-13 21:50:46.919,2086,69.53334,0,0,0,0,0,0,0,-1,-0.2520905,-2.594162,-0.4393311,14.54882,-26.31203,4.893127,190.9252,194.0084,10,7.463273,-10.19827,-2.897762,1.666287,1.622003,1.033811,7.320444,-9.613438,-2.211535,-0.7129649,-1.614302,-0.4525139,172.17.160.76,0.0.0.0,4,walking,0,2014-11-13 21:50:42.466,0,2014-11-13 21:44:53.658,0
2014-11-13 21:50:46.975,2087,69.56667,0,0,0,0,0,0,0,-1,-0.2938995,-2.764725,-0.314682,16.92623,-24.76154,6.602509,206.606,209.6892,10,7.824958,-10.28223,-4.430216,1.527197,1.640355,1.002127,7.525692,-10.12756,-2.883745,-0.7892991,-1.751543,-0.4767592,172.17.160.76,0.0.0.0,4,walking,0,2014-11-13 21:50:42.466,0,2014-11-13 21:44:53.658,0
2014-11-13 21:50:47.006,2088,69.60001,0,0,0,0,0,0,0,-1,-0.2938995,-2.764725,-0.314682,20.23393,-20.07564,8.010223,241.0584,244.1416,10,7.824958,-10.28223,-4.430216,1.393837,1.647952,0.9622954,7.717229,-10.37205,-3.612023,-0.8431003,-1.852605,-0.4258667,172.17.160.76,0.0.0.0,4,walking,0,2014-11-13 21:50:42.466,0,2014-11-13 21:44:53.658,0
2014-11-13 21:50:47.051,2089,69.63334,0,0,0,0,0,0,0,-1,0.7417603,-2.800629,-1.270889,30.70832,-12.01311,6.669495,279.472,282.5552,10,8.231319,-4.295659,-9.332919,0.6141793,1.598018,0.4904029,8.38366,-5.83334,-8.16136,-0.4623064,-2.871395,-1.078774,172.17.160.76,0.0.0.0,4,walking,0,2014-11-13 21:50:42.466,0,2014-11-13 21:44:53.658,0
2014-11-13 21:50:47.082,2090,69.66667,0,0,0,0,0,0,0,-1,0.8954926,-2.107651,-1.446259,35.15304,-1.917717,3.418335,337.6398,340.723,10,5.583967,3.067607,-9.111209,-0.6696657,1.277694,-0.7116019,6.480519,2.618371,-9.818712,-0.2097295,-2.637377,-1.748173,172.17.160.76,0.0.0.0,4,walking,0,2014-11-13 21:50:42.466,0,2014-11-13 21:44:53.658,0
2014-11-13 21:50:47.202,2091,69.7,0,0,0,0,0,0,0,-1,0.3738708,-1.1922,-1.580231,26.50478,21.89085,-8.212311,71.93096,75.01415,10,5.083964,3.166383,-8.724561,-0.9180166,1.161965,-0.8474029,5.646155,3.138471,-9.09741,-0.06927849,-2.166846,-1.574947,172.17.160.76,0.0.0.0,4,walking,0,2014-11-13 21:50:42.466,0,2014-11-13 21:44:53.658,0
2014-11-13 21:50:47.219,2092,69.73334,0,0,0,0,0,0,0,-1,0.2498627,-1.054825,-1.556641,22.81807,24.61281,-9.653534,109.0995,112.1826,10,4.133942,3.32429,-8.274349,-1.051511,1.091553,-0.9043326,5.146152,3.237246,-8.710762,-0.1746944,-1.978212,-1.295169,172.17.160.76,0.0.0.0,4,walking,0,2014-11-13 21:50:42.466,0,2014-11-13 21:44:53.658,0
2014-11-13 21:50:47.252,2093,69.76667,0,0,0,0,0,0,0,-1,0.2271729,-0.09695435,-1.132462,15.65138,26.88684,-13.13937,141.4556,144.5388,10,3.306081,3.460867,-7.685653,-1.661342,0.7149651,-1.064921,3.604391,3.443009,-7.868519,-0.2357882,-1.37681,-1.226666,172.17.160.76,0.0.0.0,4,walking,0,2014-11-13 21:50:42.466,0,2014-11-13 21:44:53.658,0
2014-11-13 21:50:47.286,2094,69.8,0,0,0,0,0,0,0,-1,0.5650024,0.1122284,-0.8939819,11.86131,27.09358,-14.68118,121.5701,124.6532,10,2.987897,3.889702,-7.763938,-2.19207,0.3533974,-1.0981,3.10187,3.787071,-7.645099,0.1969379,-0.87124,-0.5717334,172.17.160.76,0.0.0.0,4,walking,0,2014-11-13 21:50:42.466,0,2014-11-13 21:44:53.658,0
2014-11-13 21:50:47.318,2095,69.83334,0,0,0,0,0,0,0,-1,0.812851,-0.09457397,-0.9909515,5.521542,25.85319,-17.4296,164.9664,168.0496,10,2.753726,3.126128,-7.724622,-2.859661,-0.07918895,-1.014449,3.041146,3.501684,-7.731293,0.7279323,-0.7911757,-0.3998973,172.17.160.76,0.0.0.0,4,walking,0,2014-11-13 21:50:42.466,0,2014-11-13 21:44:53.658,0
2014-11-13 21:50:47.352,2096,69.86667,0,0,0,0,0,0,0,-1,0.5192871,-0.259201,-1.191391,0.008708954,23.09678,-20.24509,167.3519,170.4351,10,1.697464,2.647606,-7.557596,3.052848,-0.2906451,-0.8961476,2.062936,2.852212,-7.684345,0.9620337,-0.9491393,-0.4223719,172.17.160.76,0.0.0.0,4,walking,0,2014-11-13 21:50:42.466,0,2014-11-13 21:44:53.658,0
2014-11-13 21:50:47.386,2097,69.9,0,0,0,0,0,0,0,-1,0.3149719,-0.3527527,-1.137695,-2.265331,21.51184,-21.58578,192.5047,195.5879,10,1.1265,2.377439,-7.065414,2.854601,-0.3867754,-0.8143587,1.458258,2.56935,-7.327973,0.7781754,-0.9864866,-0.5557554,172.17.160.76,0.0.0.0,4,walking,0,2014-11-13 21:50:42.466,0,2014-11-13 21:44:53.658,0
2014-11-13 21:50:47.419,2098,69.93333,0,0,0,0,0,0,0,-1,-0.4009857,-0.4867096,-1.109024,-5.504128,18.47979,-24.06613,195.1794,198.2626,10,-0.7964878,2.475363,-3.915712,2.495702,-0.4993891,-0.6433091,0.06901698,2.690761,-5.118495,0.1806825,-0.9933095,-0.2322605,172.17.160.76,0.0.0.0,4,walking,0,2014-11-13 21:50:42.466,0,2014-11-13 21:44:53.658,0
2014-11-13 21:50:47.452,2099,69.96667,0,0,0,0,0,0,0,-1,-0.6048737,-0.3661194,-1.036896,-6.503334,16.51584,-24.83707,224.5548,227.638,10,-2.137135,1.753101,-2.126959,2.353794,-0.5053976,-0.6014642,-1.234297,2.217544,-3.273375,-0.001795783,-1.05256,-0.3875944,172.17.160.76,0.0.0.0,4,walking,0,2014-11-13 21:50:42.466,0,2014-11-13 21:44:53.658,0
2014-11-13 21:50:47.486,2100,70,0,0,0,0,0,0,0,-1,-0.7678528,0.1303406,-1.018555,-6.916798,16.9982,-24.56888,232.5896,235.6728,10,-2.481122,1.198824,-0.2625046,2.195824,-0.5116978,-0.6533125,-2.534995,1.319948,-0.6365099,-0.3819267,-0.575029,-0.3664269,172.17.160.76,0.0.0.0,4,walking,0,2014-11-13 21:50:42.466,0,2014-11-13 21:44:53.658,0
2014-11-13 21:50:47.519,2101,70.03334,0,0,0,0,0,0,0,-1,-0.7231293,0.03817749,-1.098969,-6.537792,17.58394,-24.2001,234.6819,237.7651,10,-2.435127,1.374609,0.08429198,2.176793,-0.5107245,-0.6730996,-2.418938,1.269683,-0.2487068,-0.3856561,-0.493072,-0.3364385,172.17.160.76,0.0.0.0,4,walking,0,2014-11-13 21:50:42.466,0,2014-11-13 21:44:53.658,0
2014-11-13 21:50:47.552,2102,70.06667,0,0,0,0,0,0,0,-1,-0.8330688,0.6484222,-0.8753662,-5.400768,19.68572,-23.1611,236.1784,239.2616,10,-1.903446,0.7788862,0.7319754,2.151,-0.4988289,-0.7158884,-2.302417,1.406164,0.3863418,-0.3621734,-0.6181105,-0.4364001,172.17.160.76,0.0.0.0,4,walking,0,2014-11-13 21:50:42.466,0,2014-11-13 21:44:53.658,0
2014-11-13 21:50:47.586,2103,70.10001,0,0,0,0,0,0,0,-1,-0.630722,0.7984772,-0.7157135,-4.573841,20.71938,-22.6918,236.3589,239.442,10,-1.239176,0.528099,1.335335,2.151525,-0.4571985,-0.8139509,-1.378285,0.6273162,1.292716,-0.5608029,0.009261445,-0.1200509,172.17.160.76,0.0.0.0,4,walking,0,2014-11-13 21:50:42.466,0,2014-11-13 21:44:53.658,0
2014-11-13 21:50:47.619,2104,70.13334,0,0,0,0,0,0,0,-1,-0.4853821,0.8653412,-0.6947021,-2.299793,22.1665,-21.8204,235.619,238.7022,10,-0.304631,0.1506801,1.365939,2.188236,-0.4141177,-0.8583215,-0.6911712,0.4003905,1.397219,-0.2858636,0.06742655,-0.103651,172.17.160.76,0.0.0.0,4,walking,0,2014-11-13 21:50:42.466,0,2014-11-13 21:44:53.658,0
2014-11-13 21:50:47.652,2105,70.16667,0,0,0,0,0,0,0,-1,-0.4914093,0.7862396,-0.6808472,-0.577034,22.99344,-21.61929,232.8146,235.8978,10,0.08401128,0.01379411,1.132359,2.261472,-0.3486536,-0.886829,0.04457589,0.1664659,1.280715,-0.2702613,0.06632816,-0.07602071,172.17.160.76,0.0.0.0,4,walking,0,2014-11-13 21:50:42.466,0,2014-11-13 21:44:53.658,0
2014-11-13 21:50:47.686,2106,70.2,0,0,0,0,0,0,0,-1,-0.3986969,0.7530212,-0.6759186,0.4221687,23.16571,-22.05502,231.2437,234.3269,10,0.09269638,-0.03770237,1.067305,2.298628,-0.3173453,-0.8923976,0.1461936,0.08465068,1.146157,-0.295586,0.007661045,-0.08463526,172.17.160.76,0.0.0.0,4,walking,0,2014-11-13 21:50:42.466,0,2014-11-13 21:44:53.658,0
2014-11-13 21:50:47.719,2107,70.23334,0,0,0,0,0,0,0,-1,-0.2894287,0.7664642,-0.6788483,1.593647,23.0968,-22.25607,228.7827,231.8659,10,0.04182974,-0.4291455,0.8669372,2.363654,-0.2681915,-0.8983935,0.1327889,-0.153885,0.9347772,-0.2133045,-0.04381713,-0.07658391,172.17.160.76,0.0.0.0,4,walking,0,2014-11-13 21:50:42.466,0,2014-11-13 21:44:53.658,0
2014-11-13 21:50:47.752,2108,70.26667,0,0,0,0,0,0,0,-1,-0.3510132,0.7306061,-0.6018372,1.800377,22.75225,-21.98795,226.2932,229.3764,10,0.07069495,-0.6401541,0.7861068,2.419607,-0.2396815,-0.9028927,0.1062071,-0.5543371,0.809636,-0.1404481,-0.01742158,-0.06047267,172.17.160.76,0.0.0.0,4,walking,0,2014-11-13 21:50:42.466,0,2014-11-13 21:44:53.658,0
2014-11-13 21:50:47.786,2109,70.3,0,0,0,0,0,0,0,-1,-0.3817902,0.6863403,-0.625824,1.800377,22.75225,-21.98795,226.2932,229.3764,10,0.0684262,-0.6131966,0.8382699,2.445513,-0.2309139,-0.9041899,0.132876,-0.569299,0.7999039,-0.1708489,-0.0303703,-0.002230495,172.17.160.76,0.0.0.0,4,walking,0,2014-11-13 21:50:42.466,0,2014-11-13 21:44:53.658,0
2014-11-13 21:50:47.819,2110,70.33334,0,0,0,0,0,0,0,-1,-0.2165375,0.7066193,-0.631073,2.144928,22.4766,-21.51871,224.7083,227.7914,10,-0.07599171,-0.408538,1.056431,2.521142,-0.1947173,-0.9100131,0.02365032,-0.3689491,1.012603,-0.1602405,-0.09686956,-0.07321671,172.17.160.76,0.0.0.0,4,walking,0,2014-11-13 21:50:42.466,0,2014-11-13 21:44:53.658,0
2014-11-13 21:50:47.852,2111,70.36667,0,0,0,0,0,0,0,-1,-0.1831207,0.7333984,-0.6735687,2.592846,22.37325,-21.4852,223.0661,226.1493,10,-0.137176,-0.3776522,1.203307,2.538022,-0.1848276,-0.9120378,-0.01381143,-0.3376837,1.070228,-0.1257085,-0.09203762,-0.05495233,172.17.160.76,0.0.0.0,4,walking,0,2014-11-13 21:50:42.466,0,2014-11-13 21:44:53.658,0
