time,timestamp,recordtime,lat,long,alt,speed,course,verticalAccuracy,horizontalAccuracy,locTimeStamp,accelerationX,accelerationY,accelerationZ,HeadingX,HeadingY,HeadingZ,TrueHeading,MagneticHeading,HeadingAccuracy,RotationX,RotationY,RotationZ,motionYaw,motionRoll,motionPitch,motionRotationRateX,motionRotationRateY,motionRotationRateZ,motionUserAccelerationX,motionUserAccelerationY,motionUserAccelerationZ,en0,pdp_ip0,DeviceOrientation,Activity,Activity Confidence,Activity Start,Steps,Last Step Date,State
2014-11-13 21:51:11.552,2822,94.06667,0,0,0,0,0,0,0,-1,0.8425751,-0.4459076,0.2412262,33.91265,-6.052383,11.9321,308.5672,311.6504,10,-0.0586247,-0.09048356,-0.02573253,0.305244,1.845825,0.4667678,0.005785558,-0.03321614,-0.003200003,-0.001036241,0.0009970344,0.001647677,172.17.160.76,0.0.0.0,4,stationary,1,2014-11-13 21:51:11.212,0,2014-11-13 21:44:53.658,0
2014-11-13 21:51:11.586,2823,94.10001,0,0,0,0,0,0,0,-1,0.842514,-0.446228,0.2355499,33.91265,-5.983482,11.9321,308.5779,311.6611,10,-0.05971473,-0.07551873,-0.01397334,0.3051133,1.845474,0.466578,0.004749178,-0.01944928,-0.009492573,-0.01231184,0.006168187,0.00255172,172.17.160.76,0.0.0.0,4,stationary,1,2014-11-13 21:51:11.212,0,2014-11-13 21:44:53.658,0
2014-11-13 21:51:11.619,2824,94.13334,0,0,0,0,0,0,0,-1,0.8409424,-0.4497681,0.2377625,34.08492,-6.362488,12.23376,308.5721,311.6553,10,-0.06186523,-0.07866552,-0.008674448,0.3049034,1.845514,0.4666944,0.002588876,-0.005538063,0.003327366,-0.01470836,0.00352548,-0.00215323,172.17.160.76,0.0.0.0,4,stationary,1,2014-11-13 21:51:11.212,0,2014-11-13 21:44:53.658,0
2014-11-13 21:51:11.652,2825,94.16667,0,0,0,0,0,0,0,-1,0.8519287,-0.4571228,0.2308197,34.18829,-6.052391,11.9321,308.5811,311.6643,10,-0.06186603,-0.07121133,-0.006512228,0.3047979,1.845401,0.4673163,0.002703332,-0.001373214,0.006588107,-0.01278777,-0.0002221644,-0.005382818,172.17.160.76,0.0.0.0,4,stationary,1,2014-11-13 21:51:11.212,0,2014-11-13 21:44:53.658,0
2014-11-13 21:51:11.686,2826,94.2,0,0,0,0,0,0,0,-1,0.8453369,-0.4557648,0.2287598,34.70512,-5.811195,11.83157,308.6377,311.7209,10,-0.0747299,-0.1274509,0.002793123,0.3049997,1.844452,0.4684604,-0.01120353,-0.02787018,0.01499506,-0.007805444,-0.009485408,-0.009508586,172.17.160.76,0.0.0.0,4,stationary,1,2014-11-13 21:51:11.212,0,2014-11-13 21:44:53.658,0
2014-11-13 21:51:11.719,2827,94.23334,0,0,0,0,0,0,0,-1,0.8409882,-0.4551086,0.2353668,34.49839,-5.880112,11.69754,308.7127,311.7959,10,-0.07688599,-0.1380359,0.008052867,0.3055789,1.840799,0.4705931,-0.01553454,-0.07455301,0.02432293,-0.01954558,-0.003280586,-0.002358038,172.17.160.76,0.0.0.0,4,stationary,1,2014-11-13 21:51:11.212,0,2014-11-13 21:44:53.658,0
2014-11-13 21:51:11.752,2828,94.26667,0,0,0,0,0,0,0,-1,0.8432159,-0.4605255,0.2294922,34.49839,-6.017937,11.56345,308.7438,311.827,10,-0.07687641,-0.1167679,0.01028779,0.3056388,1.839622,0.471473,-0.01018715,-0.05117821,0.02442768,-0.01791392,-0.000909587,-0.001256155,172.17.160.76,0.0.0.0,4,stationary,1,2014-11-13 21:51:11.212,0,2014-11-13 21:44:53.658,0
2014-11-13 21:51:11.785,2829,94.3,0,0,0,0,0,0,0,-1,0.8538208,-0.4613647,0.2270203,34.11938,-6.328033,11.32883,308.7741,311.8573,10,-0.07904688,-0.1337045,0.01869859,0.3056569,1.839213,0.4719546,-0.01338797,-0.04584742,0.0265917,-0.02030203,-0.003288144,-0.0006179441,172.17.160.76,0.0.0.0,4,stationary,1,2014-11-13 21:51:11.212,0,2014-11-13 21:44:53.658,0
2014-11-13 21:51:11.819,2830,94.33334,0,0,0,0,0,0,0,-1,0.8537445,-0.4499969,0.2292328,34.05047,-6.328033,11.46286,308.8107,311.8939,10,-0.09933564,-0.1612901,0.02287522,0.3064734,1.834278,0.475382,-0.03040503,-0.08729149,0.04348002,-0.005177489,-0.005044633,-0.006162001,172.17.160.76,0.0.0.0,4,stationary,1,2014-11-13 21:51:11.212,0,2014-11-13 21:44:53.658,0
2014-11-13 21:51:11.852,2831,94.36667,0,0,0,0,0,0,0,-1,0.8568115,-0.4553375,0.225769,34.11938,-6.328026,11.46286,308.8463,311.9295,10,-0.08869498,-0.1793437,0.02486327,0.3073403,1.830927,0.4768117,-0.03359989,-0.1032697,0.03810043,-0.004827039,0.008951872,0.0007139043,172.17.160.76,0.0.0.0,4,stationary,1,2014-11-13 21:51:11.212,0,2014-11-13 21:44:53.658,0
2014-11-13 21:51:11.885,2832,94.4,0,0,0,0,0,0,0,-1,0.8520203,-0.452301,0.2238007,34.60175,-6.396935,11.52985,308.8634,311.9466,10,-0.08873253,-0.2165107,0.02785214,0.3078471,1.825774,0.4782916,-0.02084477,-0.140444,0.0410394,0.001836513,0.005459721,-0.000393619,172.17.160.76,0.0.0.0,4,stationary,1,2014-11-13 21:51:11.212,0,2014-11-13 21:44:53.658,0
2014-11-13 21:51:11.919,2833,94.43334,0,0,0,0,0,0,0,-1,0.8490753,-0.443924,0.225235,34.63621,-6.293564,11.36227,308.8769,311.9601,10,-0.09614624,-0.2027891,0.01521437,0.3081138,1.822775,0.479073,-0.02512253,-0.1457309,0.04421123,-0.003670574,0.007328165,0.003600832,172.17.160.76,0.0.0.0,4,stationary,1,2014-11-13 21:51:11.212,0,2014-11-13 21:44:53.658,0
2014-11-13 21:51:11.952,2834,94.46667,0,0,0,0,0,0,0,-1,0.8567047,-0.4541931,0.2037811,34.70512,-6.155746,11.36227,308.9017,311.9849,10,-0.1089494,-0.2123381,0.01627351,0.3093242,1.815948,0.4800554,-0.04093436,-0.1352829,0.02632847,-0.006781296,0.0121213,-0.002425296,172.17.160.76,0.0.0.0,4,stationary,1,2014-11-13 21:51:11.212,0,2014-11-13 21:44:53.658,0
2014-11-13 21:51:11.986,2835,94.50001,0,0,0,0,0,0,0,-1,0.8500519,-0.4565125,0.2075348,34.32611,-6.052383,10.99362,308.9276,312.0108,10,-0.1047035,-0.2027129,0.02480016,0.3102976,1.81246,0.4807401,-0.04522327,-0.14161,0.0326793,-0.004183206,0.008242379,-0.008410781,172.17.160.76,0.0.0.0,4,stationary,1,2014-11-13 21:51:11.212,0,2014-11-13 21:44:53.658,0
2014-11-13 21:51:12.019,2836,94.53334,0,0,0,0,0,0,0,-1,0.8487396,-0.4559937,0.1983948,34.2572,-6.259117,10.99362,308.9279,312.0111,10,-0.1154273,-0.1972268,0.04716032,0.3111083,1.809198,0.4814845,-0.04097784,-0.1319859,0.04120503,-0.007328412,0.007757863,-0.002941365,172.17.160.76,0.0.0.0,4,stationary,1,2014-11-13 21:51:11.212,0,2014-11-13 21:44:53.658,0
2014-11-13 21:51:12.052,2837,94.56667,0,0,0,0,0,0,0,-1,0.8638916,-0.4452515,0.2157288,34.05047,-6.741486,11.39587,308.8566,311.9398,10,-0.1250826,-0.1757782,0.07278499,0.3137571,1.800974,0.4857061,-0.06345866,-0.09448106,0.08181987,0.002961429,0.01985719,0.006625468,172.17.160.76,0.0.0.0,4,stationary,1,2014-11-13 21:51:11.212,0,2014-11-13 21:44:53.658,0
2014-11-13 21:51:12.086,2838,94.60001,0,0,0,0,0,0,0,-1,0.8482056,-0.4599762,0.2088623,34.2572,-7.017128,11.39587,308.7525,311.8357,10,-0.1325873,-0.1980252,0.0811878,0.3144637,1.798759,0.4870619,-0.06244701,-0.1220199,0.09334427,0.003042514,0.02277998,0.01601543,172.17.160.76,0.0.0.0,4,stationary,1,2014-11-13 21:51:11.212,0,2014-11-13 21:44:53.658,0
2014-11-13 21:51:12.119,2839,94.63334,0,0,0,0,0,0,0,-1,0.8622742,-0.4709167,0.2022552,34.36057,-6.844856,10.89304,308.6663,311.7495,10,-0.1569542,-0.05893202,0.06608927,0.3162228,1.794324,0.4909983,-0.08683495,-0.07105267,0.1001194,-0.008070712,0.007730847,0.01713234,172.17.160.76,0.0.0.0,4,stationary,1,2014-11-13 21:51:11.212,0,2014-11-13 21:44:53.658,0
2014-11-13 21:51:12.152,2840,94.66667,0,0,0,0,0,0,0,-1,0.8670044,-0.4838562,0.190918,34.11938,-6.879318,10.59137,308.6428,311.726,10,-0.1707947,-0.06003564,0.05976639,0.3183194,1.793825,0.4938306,-0.094158,0.03187373,0.08051966,0.003559344,0.003085538,0.007497245,172.17.160.76,0.0.0.0,4,stationary,1,2014-11-13 21:51:11.212,0,2014-11-13 21:44:53.658,0
2014-11-13 21:51:12.186,2841,94.7,0,0,0,0,0,0,0,-1,0.8782349,-0.4598236,0.2132111,34.15384,-6.775955,10.4238,308.6297,311.7129,10,-0.1718399,-0.06647463,0.05124455,0.3202436,1.793317,0.4957627,-0.1069542,0.01059581,0.07620929,0.008521024,-0.005422204,0.001498366,172.17.160.76,0.0.0.0,4,stationary,1,2014-11-13 21:51:11.212,0,2014-11-13 21:44:53.658,0
2014-11-13 21:51:12.219,2842,94.73334,0,0,0,0,0,0,0,-1,0.8470612,-0.5002441,0.1817169,34.39502,-7.154968,10.12213,308.6484,311.7316,10,-0.1153474,-0.137809,0.03579661,0.32312,1.792097,0.4975489,-0.05254925,-0.02571038,0.05563994,0.01750755,0.01029307,0.008499624,172.17.160.76,0.0.0.0,4,unknown,2,2014-11-13 21:51:12.139,0,2014-11-13 21:44:53.658,0
2014-11-13 21:51:12.252,2843,94.76667,0,0,0,0,0,0,0,-1,0.8356628,-0.5028992,0.1829376,34.32611,-7.154968,10.18918,308.6408,311.724,10,-0.1003825,-0.080428,0.03710423,0.3250396,1.788399,0.5010954,-0.05044582,-0.06929554,0.05328419,-0.01436346,-0.01364726,-0.006928486,172.17.160.76,0.0.0.0,4,unknown,2,2014-11-13 21:51:12.139,0,2014-11-13 21:44:53.658,0
2014-11-13 21:51:12.285,2844,94.8,0,0,0,0,0,0,0,-1,0.8735962,-0.4925079,0.1965179,34.29166,-7.396149,10.35681,308.5938,311.677,10,-0.06510497,-0.04875129,0.01272485,0.3257719,1.787309,0.5028082,-0.03643921,-0.009884328,0.05359282,-0.02011215,-0.02101107,-0.005298992,172.17.160.76,0.0.0.0,4,unknown,2,2014-11-13 21:51:12.139,0,2014-11-13 21:44:53.658,0
2014-11-13 21:51:12.319,2845,94.83334,0,0,0,0,0,0,0,-1,0.8631134,-0.4988861,0.1874237,34.32612,-7.568428,10.18924,308.5674,311.6506,10,0.007337009,-0.2392248,-0.01933242,0.324711,1.787314,0.5043957,0.05744797,-0.09421982,0.00715549,0.02255284,-0.008298626,0.009250622,172.17.160.76,0.0.0.0,4,unknown,2,2014-11-13 21:51:12.139,0,2014-11-13 21:44:53.658,0
2014-11-13 21:51:12.352,2846,94.86667,0,0,0,0,0,0,0,-1,0.831543,-0.5052185,0.1911316,34.80849,-7.361694,10.12219,307.1185,310.2017,10,0.003066364,-0.2519819,-0.02044509,0.3239318,1.786408,0.5042415,0.07236159,-0.1389126,-0.0005662104,0.02070784,-0.01037156,0.005401084,172.17.160.76,0.0.0.0,4,unknown,2,2014-11-13 21:51:12.139,0,2014-11-13 21:44:53.658,0
2014-11-13 21:51:12.386,2847,94.9,0,0,0,0,0,0,0,-1,0.8854218,-0.4469147,0.2141724,34.53284,-6.948242,10.45734,306.444,309.5272,10,-0.03723552,-0.09385779,-0.04918299,0.3199615,1.781817,0.5047315,0.04366706,-0.07950063,-0.01499942,-0.01898916,0.0001740241,0.02196725,172.17.160.76,0.0.0.0,4,unknown,2,2014-11-13 21:51:12.139,0,2014-11-13 21:44:53.658,0
2014-11-13 21:51:12.419,2848,94.93334,0,0,0,0,0,0,0,-1,0.9514923,-0.3995056,0.1948242,34.42948,-6.844872,10.49088,306.0471,309.1303,10,-0.1086098,-0.01197783,-0.0453001,0.3191811,1.783329,0.5026541,-0.001949498,0.04878958,-0.05555354,0.02883186,0.03483836,0.02932708,172.17.160.76,0.0.0.0,4,unknown,2,2014-11-13 21:51:12.139,0,2014-11-13 21:44:53.658,0
2014-11-13 21:51:12.452,2849,94.96667,0,0,0,0,0,0,0,-1,1.103775,-0.1872711,0.251358,33.80929,-6.775963,10.8931,304.1557,307.2389,10,-0.4612252,0.1057397,-0.0974954,0.3247819,1.782762,0.499267,-0.2161844,0.03707851,-0.07180588,0.1135321,0.1250377,0.01439517,172.17.160.76,0.0.0.0,4,unknown,2,2014-11-13 21:51:12.139,0,2014-11-13 21:44:53.658,0
2014-11-13 21:51:12.486,2850,95.00001,0,0,0,0,0,0,0,-1,1.151108,-0.008361816,0.2703247,33.84374,-7.154968,11.0607,302.933,306.0161,10,-0.6879187,0.3572183,-0.1579497,0.3324043,1.781401,0.4991463,-0.3972788,0.1762896,-0.08100957,0.2036029,0.2182086,0.05575806,172.17.160.76,0.0.0.0,4,unknown,2,2014-11-13 21:51:12.139,0,2014-11-13 21:44:53.658,0
2014-11-13 21:51:12.519,2851,95.03334,0,0,0,0,0,0,0,-1,1.228943,0.05561829,0.2121735,34.01601,-7.740692,12.16681,298.0952,301.1784,10,-0.9394069,0.9452747,-0.3948677,0.3531973,1.783436,0.4987699,-0.7227476,0.5908427,-0.2219695,0.292715,0.4699838,0.08499461,172.17.160.76,0.0.0.0,4,unknown,2,2014-11-13 21:51:12.139,0,2014-11-13 21:44:53.658,0
2014-11-13 21:51:12.552,2852,95.06667,0,0,0,0,0,0,0,-1,1.419327,0.1278992,0.06236267,33.87819,-7.809601,12.50201,296.8152,299.8984,10,-1.277717,1.886398,-0.738934,0.3973169,1.805891,0.4910395,-1.056879,1.508754,-0.5438827,0.4128764,0.5345616,-0.02702193,172.17.160.76,0.0.0.0,4,unknown,2,2014-11-13 21:51:12.139,0,2014-11-13 21:44:53.658,0
2014-11-13 21:51:12.586,2853,95.10001,0,0,0,0,0,0,0,-1,1.452591,0.1455231,0.01731873,33.80928,-7.533966,13.37344,295.3185,298.4016,10,-1.355115,2.046131,-0.8386438,0.4263574,1.828331,0.4840082,-1.213772,1.956946,-0.7224485,0.5151633,0.5704485,-0.1230711,172.17.160.76,0.0.0.0,4,unknown,2,2014-11-13 21:51:12.139,0,2014-11-13 21:44:53.658,0
2014-11-13 21:51:12.619,2854,95.13334,0,0,0,0,0,0,0,-1,1.354385,0.002258301,-0.1277771,33.56809,-7.086044,15.21692,293.8346,296.9178,10,-2.086829,2.471186,-1.303902,0.5199059,1.896781,0.4564336,-1.684251,2.328517,-1.218688,0.5571593,0.4803156,-0.3671705,172.17.160.76,0.0.0.0,4,unknown,2,2014-11-13 21:51:12.139,0,2014-11-13 21:44:53.658,0
2014-11-13 21:51:12.652,2855,95.16667,0,0,0,0,0,0,0,-1,1.207214,-0.1124878,-0.1975708,32.67226,-6.328033,17.228,292.3446,295.4278,10,-2.46064,2.679092,-1.37465,0.596426,1.939023,0.4405462,-2.209279,2.649997,-1.314809,0.5104989,0.4286919,-0.453369,172.17.160.76,0.0.0.0,4,unknown,2,2014-11-13 21:51:12.139,0,2014-11-13 21:44:53.658,0
2014-11-13 21:51:12.685,2856,95.2,0,0,0,0,0,0,0,-1,1.171738,-0.1644135,-0.3217316,31.12178,-6.707047,19.60779,286.1238,289.207,10,-2.860756,2.832914,-1.574023,0.6908541,1.983666,0.4299644,-2.679715,2.895309,-1.503884,0.3746125,0.3043506,-0.5622898,172.17.160.76,0.0.0.0,4,unknown,2,2014-11-13 21:51:12.139,0,2014-11-13 21:44:53.658,0
2014-11-13 21:51:12.719,2857,95.23334,0,0,0,0,0,0,0,-1,0.8910675,-0.2946014,-0.3734894,29.9503,-6.844864,20.27811,283.1577,286.2409,10,-3.369235,2.588226,-1.645588,0.8372568,2.03723,0.4222981,-3.151657,2.739302,-1.649423,0.3324596,0.2343359,-0.7599441,172.17.160.76,0.0.0.0,4,unknown,2,2014-11-13 21:51:12.139,0,2014-11-13 21:44:53.658,0
2014-11-13 21:51:12.752,2858,95.26667,0,0,0,0,0,0,0,-1,0.8058624,-0.3002014,-0.3604279,28.43427,-7.809616,21.81995,275.5779,278.6611,10,-3.605978,2.618345,-1.611637,0.8773321,2.047566,0.4225787,-3.305292,2.658772,-1.629103,0.2528146,0.1888459,-0.7924594,172.17.160.76,0.0.0.0,4,unknown,2,2014-11-13 21:51:12.139,0,2014-11-13 21:44:53.658,0
2014-11-13 21:51:12.786,2859,95.3,0,0,0,0,0,0,0,-1,0.651123,-0.5538483,-0.4191132,26.60814,-9.360107,22.45676,265.3158,268.399,10,-3.912141,2.919222,-1.466668,1.092727,2.09397,0.4389791,-3.768058,2.815733,-1.556486,-0.06230457,0.08079257,-0.7938737,172.17.160.76,0.0.0.0,4,unknown,2,2014-11-13 21:51:12.139,0,2014-11-13 21:44:53.658,0
2014-11-13 21:51:12.819,2860,95.33334,0,0,0,0,0,0,0,-1,0.6620636,-0.6706848,-0.4718628,25.98795,-10.39376,22.32266,260.0592,263.1424,10,-4.097038,3.071657,-1.271983,1.227557,2.124297,0.4606274,-3.933731,3.070272,-1.347537,-0.1109023,-0.109338,-0.8899932,172.17.160.76,0.0.0.0,4,unknown,2,2014-11-13 21:51:12.139,0,2014-11-13 21:44:53.658,0
2014-11-13 21:51:12.853,2861,95.36667,0,0,0,0,0,0,0,-1,0.6455536,-0.8596497,-0.4134521,23.67945,-13.25354,22.82547,242.146,245.2292,10,-4.37809,3.018132,-1.059978,1.413088,2.166051,0.5110852,-4.272359,3.227585,-1.079008,-0.09982269,-0.2651026,-0.9681939,172.17.160.76,0.0.0.0,4,unknown,2,2014-11-13 21:51:12.139,0,2014-11-13 21:44:53.658,0
2014-11-13 21:51:12.886,2862,95.4,0,0,0,0,0,0,0,-1,0.6501923,-1.047989,-0.4070892,21.12976,-16.2856,22.42322,221.8701,224.9533,10,-4.377339,2.603725,-1.061101,1.557368,2.185557,0.5587572,-4.296041,2.992889,-1.063172,-0.04711747,-0.3295168,-0.9024981,172.17.160.76,0.0.0.0,4,unknown,2,2014-11-13 21:51:12.139,0,2014-11-13 21:44:53.658,0
2014-11-13 21:51:12.919,2863,95.43334,0,0,0,0,0,0,0,-1,0.4115143,-1.250122,-0.3553467,19.33809,-19.93785,20.6803,199.0401,202.1233,10,-4.651561,2.194073,-0.7299876,1.807454,2.172259,0.6447648,-4.509549,2.259696,-0.7976786,-0.08607476,-0.5617093,-0.8621622,172.17.160.76,0.0.0.0,4,unknown,2,2014-11-13 21:51:12.139,0,2014-11-13 21:44:53.658,0
2014-11-13 21:51:12.952,2864,95.46667,0,0,0,0,0,0,0,-1,0.4136047,-1.287811,-0.2520294,18.4078,-21.35052,19.30606,188.8643,191.9475,10,-4.61421,2.484592,-0.6691546,1.914206,2.152555,0.68425,-4.60471,2.396715,-0.669223,-0.235907,-0.6180301,-0.7811464,172.17.160.76,0.0.0.0,4,unknown,2,2014-11-13 21:51:12.139,0,2014-11-13 21:44:53.658,0
2014-11-13 21:51:12.986,2865,95.50001,0,0,0,0,0,0,0,-1,0.4815216,-1.302887,-0.2040405,17.99433,-22.45309,17.63019,180.1458,183.229,10,-4.444708,2.588842,-0.6427034,1.96866,2.142889,0.7036572,-4.55027,2.555135,-0.6526704,-0.2550695,-0.6088641,-0.727148,172.17.160.76,0.0.0.0,4,unknown,2,2014-11-13 21:51:12.139,0,2014-11-13 21:44:53.658,0
2014-11-13 21:51:13.019,2866,95.53334,0,0,0,0,0,0,0,-1,0.02131653,-1.399902,-0.05671692,17.30523,-24.31367,14.0773,161.3375,164.4207,10,-4.000248,1.68234,-0.4920419,2.29378,2.060522,0.8047273,-3.986451,1.755129,-0.4626205,-0.2291424,-0.6131749,-0.5168712,172.17.160.76,0.0.0.0,4,unknown,2,2014-11-13 21:51:12.139,0,2014-11-13 21:44:53.658,0
2014-11-13 21:51:13.052,2867,95.56667,0,0,0,0,0,0,0,-1,0.01525879,-1.305435,0.09764099,16.58167,-25.79523,10.89313,146.4931,149.5763,10,-3.505802,2.360753,-0.9594959,2.456944,1.998831,0.8397402,-3.649333,2.2265,-0.7777224,-0.5861061,-0.6554326,-0.3338498,172.17.160.76,0.0.0.0,4,unknown,2,2014-11-13 21:51:12.139,0,2014-11-13 21:44:53.658,0
2014-11-13 21:51:13.085,2868,95.60001,0,0,0,0,0,0,0,-1,0.1059113,-1.286392,0.1723022,15.99593,-26.72552,8.513336,137.6268,140.71,10,-2.614436,1.749951,-1.163486,2.610898,1.956984,0.8499619,-2.960421,2.427307,-1.160317,-0.5320877,-0.5476644,-0.1256599,172.17.160.76,0.0.0.0,4,unknown,2,2014-11-13 21:51:12.139,0,2014-11-13 21:44:53.658,0
2014-11-13 21:51:13.119,2869,95.63334,0,0,0,0,0,0,0,-1,-0.0199585,-1.301193,0.1905823,16.34048,-27.00116,7.440796,132.1155,135.1987,10,-2.135354,0.7585913,-0.8499327,2.739881,1.916895,0.8461485,-2.41038,1.419509,-1.049859,-0.5176545,-0.5376593,-0.05256406,172.17.160.76,0.0.0.0,4,unknown,2,2014-11-13 21:51:12.139,0,2014-11-13 21:44:53.658,0
2014-11-13 21:51:13.152,2870,95.66667,0,0,0,0,0,0,0,-1,0.1095276,-1.293137,0.1218872,16.82286,-27.00116,5.295685,124.2047,127.2879,10,-1.037629,-0.1535105,-0.2729082,2.914539,1.825248,0.8378204,-1.208652,0.1497611,-0.4082342,-0.6188695,-0.5335926,-0.07208958,172.17.160.76,0.0.0.0,4,unknown,2,2014-11-13 21:51:12.139,0,2014-11-13 21:44:53.658,0
2014-11-13 21:51:13.186,2871,95.7,0,0,0,0,0,0,0,-1,0.1076355,-1.335907,0.1719818,17.51196,-26.72552,3.88797,121.1462,124.2294,10,-0.5966085,-0.736836,0.03975167,2.930582,1.813111,0.8374998,-0.9736918,-0.08297051,-0.2564247,-0.5580477,-0.5320219,-0.06760206,172.17.160.76,0.0.0.0,4,unknown,2,2014-11-13 21:51:12.139,0,2014-11-13 21:44:53.658,0
2014-11-13 21:51:13.219,2872,95.73334,0,0,0,0,0,0,0,-1,0.1166992,-1.450897,0.1420441,17.51196,-26.79443,3.485718,121.3873,124.4705,10,-0.1522939,-1.192651,0.3530707,2.9511,1.788995,0.8394843,-0.5326715,-0.6662963,0.05623512,-0.5364109,-0.5723974,0.003821981,172.17.160.76,0.0.0.0,4,unknown,2,2014-11-13 21:51:12.139,0,2014-11-13 21:44:53.658,0
2014-11-13 21:51:13.252,2873,95.76667,0,0,0,0,0,0,0,-1,0.2451935,-1.536163,0.02705383,17.71869,-26.24315,3.351624,124.8506,127.9338,10,1.166148,-2.726158,1.110694,2.919375,1.727561,0.8712112,0.963389,-2.212481,0.9925771,-0.4273253,-0.7449156,-0.03567803,172.17.160.76,0.0.0.0,4,unknown,2,2014-11-13 21:51:12.139,0,2014-11-13 21:44:53.658,0
2014-11-13 21:51:13.286,2874,95.8,0,0,0,0,0,0,0,-1,0.2353973,-1.542755,0.06010437,16.89177,-26.24315,2.748322,127.5951,130.6783,10,2.115199,-4.159147,1.364965,2.842659,1.696514,0.9010031,1.846103,-3.616092,1.334292,-0.358829,-0.7572945,-0.048348,172.17.160.76,0.0.0.0,4,unknown,2,2014-11-13 21:51:12.139,0,2014-11-13 21:44:53.658,0
2014-11-13 21:51:13.319,2875,95.83334,0,0,0,0,0,0,0,-1,0.1309204,-1.624634,0.0405426,16.30603,-26.07087,2.915894,132.328,135.4112,10,3.663869,-5.993955,1.351627,2.714829,1.665158,0.9345243,2.902354,-5.008038,1.401557,-0.3561603,-0.7384386,0.004117663,172.17.160.76,0.0.0.0,4,unknown,2,2014-11-13 21:51:12.139,0,2014-11-13 21:44:53.658,0
2014-11-13 21:51:13.352,2876,95.86667,0,0,0,0,0,0,0,-1,0.07821655,-1.800613,0.03384399,14.96228,-26.58771,3.619751,145.3757,148.4589,10,4.610034,-6.804402,1.307726,2.521875,1.648149,0.9664891,4.185009,-6.348923,1.349356,-0.4355727,-0.8017378,-0.003364733,172.17.160.76,0.0.0.0,4,unknown,2,2014-11-13 21:51:12.139,0,2014-11-13 21:44:53.658,0
2014-11-13 21:51:13.386,2877,95.9,0,0,0,0,0,0,0,-1,0.1121368,-2.059128,-0.08500671,14.96228,-26.44989,4.558258,155.5454,158.6286,10,6.30783,-8.185993,1.096657,2.242104,1.669379,0.9921497,5.805895,-7.592762,1.224219,-0.4653328,-1.079041,-0.0649964,172.17.160.76,0.0.0.0,4,unknown,2,2014-11-13 21:51:12.139,0,2014-11-13 21:44:53.658,0
2014-11-13 21:51:13.421,2878,95.93334,0,0,0,0,0,0,0,-1,0.1683655,-2.697525,-0.2624359,16.92623,-24.48593,8.077606,192.3286,195.4117,10,8.417888,-9.004415,-2.052233,1.469168,1.78352,0.935995,8.112937,-9.074994,-1.308999,-0.6043699,-1.866686,-0.3044601,172.17.160.76,0.0.0.0,4,unknown,2,2014-11-13 21:51:12.139,0,2014-11-13 21:44:53.658,0
2014-11-13 21:51:13.453,2879,95.96667,0,0,0,0,0,0,0,-1,0.2551422,-2.768158,-0.3654175,18.89017,-22.86654,9.652954,207.1828,210.266,10,9.178126,-8.73474,-3.445263,1.34097,1.795676,0.8996941,8.481959,-8.934003,-2.035692,-0.539328,-1.887426,-0.3553401,172.17.160.76,0.0.0.0,4,unknown,2,2014-11-13 21:51:12.139,0,2014-11-13 21:44:53.658,0
2014-11-13 21:51:13.489,2880,96.00001,0,0,0,0,0,0,0,-1,0.7283173,-2.974457,-0.8701019,27.98635,-13.63254,11.46286,258.9035,261.9867,10,9.726922,-5.854743,-6.879845,0.6589001,1.754663,0.5347325,9.889818,-7.352791,-5.743577,-0.3983618,-2.664446,-0.9184031,172.17.160.76,0.0.0.0,4,unknown,2,2014-11-13 21:51:12.139,0,2014-11-13 21:44:53.658,0
2014-11-13 21:51:13.530,2881,96.03334,0,0,0,0,0,0,0,-1,1.276474,-2.6203,-0.7206879,31.2596,-9.394539,10.15567,279.4113,282.4945,10,9.745293,-5.112289,-7.479988,0.4655561,1.711899,0.3752808,9.790993,-5.784333,-6.863304,-0.3812104,-2.736051,-0.9978366,172.17.160.76,0.0.0.0,4,unknown,2,2014-11-13 21:51:12.139,0,2014-11-13 21:44:53.658,0
2014-11-13 21:51:13.561,2882,96.06667,0,0,0,0,0,0,0,-1,1.276474,-2.6203,-0.7206879,33.46473,-4.570808,8.144653,300.0948,303.178,10,9.85444,-4.451188,-8.15414,0.4655561,1.711899,0.3752808,9.790993,-5.784333,-6.863304,-0.3812104,-2.736051,-0.9978366,172.17.160.76,0.0.0.0,4,unknown,2,2014-11-13 21:51:12.139,0,2014-11-13 21:44:53.658,0
2014-11-13 21:51:13.604,2883,96.10001,0,0,0,0,0,0,0,-1,0.4754639,-1.640182,-1.894836,33.84374,11.24413,-0.0001220703,1.281037,4.364227,10,7.585755,0.7155988,-10.33163,-0.3968856,1.418388,-0.4460523,7.812142,-0.0946501,-10.27787,-0.2870854,-2.670818,-1.723677,172.17.160.76,0.0.0.0,4,unknown,2,2014-11-13 21:51:12.139,0,2014-11-13 21:44:53.658,0
2014-11-13 21:51:13.630,2884,96.13334,0,0,0,0,0,0,0,-1,0.5204468,-1.596161,-1.760574,31.53524,15.68884,-2.916199,19.09639,22.17958,10,7.585755,0.7155988,-10.33163,-0.3968856,1.418388,-0.4460523,7.812142,-0.0946501,-10.27787,-0.2870854,-2.670818,-1.723677,172.17.160.76,0.0.0.0,4,unknown,2,2014-11-13 21:51:12.139,0,2014-11-13 21:44:53.658,0
2014-11-13 21:51:13.660,2885,96.16667,0,0,0,0,0,0,0,-1,0.2050629,-1.445282,-1.537384,28.26199,19.44446,-5.698151,37.1491,40.23229,10,5.494102,2.037919,-8.56114,-0.8695096,1.202477,-0.755487,6.914006,1.968674,-9.226576,-0.1692758,-2.225698,-1.294777,172.17.160.76,0.0.0.0,4,unknown,2,2014-11-13 21:51:12.139,0,2014-11-13 21:44:53.658,0
2014-11-13 21:51:13.686,2886,96.2,0,0,0,0,0,0,0,-1,-0.1022034,-0.7130737,-1.349243,20.47511,24.13037,-10.79288,78.70825,81.79144,10,4.063088,2.681475,-8.274284,-1.139618,1.047594,-0.8616756,5.55817,2.108327,-8.5446,-0.358993,-2.204217,-1.212024,172.17.160.76,0.0.0.0,4,unknown,2,2014-11-13 21:51:12.139,0,2014-11-13 21:44:53.658,0
2014-11-13 21:51:13.719,2887,96.23334,0,0,0,0,0,0,0,-1,0.1535187,-0.2554016,-0.9990234,16.65058,25.19849,-13.44083,99.09067,102.1739,10,3.331434,4.182176,-6.718124,-1.709781,0.7009533,-1.007082,3.507474,3.610478,-7.584291,-0.4601075,-1.439194,-0.7382877,172.17.160.76,0.0.0.0,4,unknown,2,2014-11-13 21:51:12.139,0,2014-11-13 21:44:53.658,0
2014-11-13 21:51:13.752,2888,96.26667,0,0,0,0,0,0,0,-1,0.5886688,-0.06062317,-0.9957886,10.75874,25.99097,-16.55789,133.162,136.2452,10,3.000928,3.705465,-6.829791,-2.148114,0.4502567,-1.033351,3.356491,4.174337,-6.511844,-0.06927733,-1.114421,-0.5381028,172.17.160.76,0.0.0.0,4,unknown,2,2014-11-13 21:51:12.139,0,2014-11-13 21:44:53.658,0
2014-11-13 21:51:13.786,2889,96.3,0,0,0,0,0,0,0,-1,0.4390564,-0.3356018,-0.9937744,8.553596,25.57751,-17.96561,145.1464,148.2296,10,2.884995,3.533453,-6.961886,-2.433538,0.2844572,-1.021861,3.064996,3.775872,-6.813251,0.3792656,-0.91613,-0.5283334,172.17.160.76,0.0.0.0,4,unknown,2,2014-11-13 21:51:12.139,0,2014-11-13 21:44:53.658,0
2014-11-13 21:51:13.818,2890,96.33334,0,0,0,0,0,0,0,-1,0.3060455,-0.01843262,-1.075043,4.453426,23.95811,-19.67502,165.6468,168.73,10,1.897111,2.607932,-5.898395,-3.049946,-0.06252526,-0.9282908,2.049209,2.831126,-6.046971,0.2717244,-1.175338,-0.554876,172.17.160.76,0.0.0.0,4,unknown,2,2014-11-13 21:51:12.139,0,2014-11-13 21:44:53.658,0
2014-11-13 21:51:13.852,2891,96.36667,0,0,0,0,0,0,0,-1,-0.4303131,-0.07347107,-0.8838806,1.352459,21.61517,-21.55203,184.2306,187.3138,10,1.326072,2.940515,-5.227894,2.968911,-0.1863268,-0.8507985,1.650413,2.851242,-5.657931,0.4281966,-0.7702398,-0.4270727,172.17.160.76,0.0.0.0,4,unknown,2,2014-11-13 21:51:12.139,0,2014-11-13 21:44:53.658,0
2014-11-13 21:51:13.885,2892,96.4,0,0,0,0,0,0,0,-1,-0.299881,0.05384827,-1.160416,0.3188057,20.44368,-22.15536,192.6938,195.777,10,0.5645111,3.728096,-3.127653,2.72748,-0.2280434,-0.7676859,0.7824772,3.785211,-3.596856,-0.3592179,-0.7161396,-0.1781213,172.17.160.76,0.0.0.0,4,unknown,2,2014-11-13 21:51:12.139,0,2014-11-13 21:44:53.658,0
2014-11-13 21:51:13.919,2893,96.43334,0,0,0,0,0,0,0,-1,-0.3985138,0.3327484,-1.405853,0.5255318,17.96291,-23.89828,211.6647,214.7479,10,-0.5484192,2.147642,-1.418576,2.593348,-0.1838908,-0.734007,-0.1702636,2.701143,-1.854983,-0.2174862,-0.5196274,-0.5339537,172.17.160.76,0.0.0.0,4,unknown,2,2014-11-13 21:51:12.139,0,2014-11-13 21:44:53.658,0
2014-11-13 21:51:13.952,2894,96.46667,0,0,0,0,0,0,0,-1,-0.3967743,0.4413452,-1.432007,1.214638,17.68726,-24.16641,215.2155,218.2987,10,-0.799257,1.748796,-1.062018,2.593348,-0.1838908,-0.734007,-0.1702636,2.701143,-1.854983,-0.2174862,-0.5196274,-0.5339537,172.17.160.76,0.0.0.0,4,unknown,2,2014-11-13 21:51:12.139,0,2014-11-13 21:44:53.658,0
2014-11-13 21:51:13.986,2895,96.50001,0,0,0,0,0,0,0,-1,-0.5578613,0.7054749,-1.131714,2.868484,18.23854,-23.69717,220.5676,223.6508,10,-1.504832,1.131296,0.1442776,2.526438,-0.1445883,-0.7677767,-1.215684,1.226244,-0.2347676,-0.3878989,-0.1363251,-0.5953169,172.17.160.76,0.0.0.0,4,unknown,2,2014-11-13 21:51:12.139,0,2014-11-13 21:44:53.658,0
2014-11-13 21:51:14.019,2896,96.53334,0,0,0,0,0,0,0,-1,-0.4151154,0.8237762,-0.8752441,3.55759,19.06546,-23.29495,222.4293,225.5125,10,-1.58465,0.8355727,0.3776067,2.523283,-0.111185,-0.8101188,-1.487027,1.100568,0.2740364,-0.4813668,-0.01889422,-0.4465584,172.17.160.76,0.0.0.0,4,unknown,2,2014-11-13 21:51:12.139,0,2014-11-13 21:44:53.658,0
2014-11-13 21:51:14.052,2897,96.56667,0,0,0,0,0,0,0,-1,-0.2766266,0.8958588,-0.627533,5.487083,20.5815,-22.95975,222.8285,225.9117,10,-1.092784,0.2498407,0.7972732,2.547868,-0.06600131,-0.8697845,-1.310818,0.4045304,0.7006729,-0.3057425,0.09222482,-0.1285231,172.17.160.76,0.0.0.0,4,unknown,2,2014-11-13 21:51:12.139,0,2014-11-13 21:44:53.658,0
2014-11-13 21:51:14.086,2898,96.60001,0,0,0,0,0,0,0,-1,-0.1993561,0.8388672,-0.6586456,6.348465,21.23614,-22.25589,222.9287,226.0119,10,-0.6784033,0.1290642,0.8704507,2.583294,-0.02866207,-0.9028036,-0.8774993,0.2992755,0.8609026,-0.2588754,0.1107922,-0.008375997,172.17.160.76,0.0.0.0,4,unknown,2,2014-11-13 21:51:12.139,0,2014-11-13 21:44:53.658,0
2014-11-13 21:51:14.119,2899,96.63334,0,0,0,0,0,0,0,-1,-0.09428406,0.7247467,-0.6289978,7.140938,21.68405,-21.68613,220.3165,223.3997,10,-0.4834519,0.004754275,0.8839269,2.64111,0.02473508,-0.9271264,-0.4608952,0.100552,0.8837716,-0.1772422,0.007626921,-0.05585605,172.17.160.76,0.0.0.0,4,unknown,2,2014-11-13 21:51:12.139,0,2014-11-13 21:44:53.658,0
2014-11-13 21:51:14.152,2900,96.66667,0,0,0,0,0,0,0,-1,-0.04571533,0.6669464,-0.6335754,7.692223,22.09751,-20.61356,219.1062,222.1893,10,-0.4165224,-0.05325097,0.9459983,2.672025,0.05086057,-0.9346458,-0.3843226,0.04348446,0.9298895,-0.144095,-0.05129113,-0.04272745,172.17.160.76,0.0.0.0,4,unknown,2,2014-11-13 21:51:12.139,0,2014-11-13 21:44:53.658,0
2014-11-13 21:51:14.186,2901,96.7,0,0,0,0,0,0,0,-1,-0.07537842,0.6812897,-0.6000824,8.140137,22.20088,-20.71408,216.2278,219.311,10,-0.4172577,-0.1243409,0.8182488,2.721584,0.09104058,-0.9428805,-0.331075,-0.0170869,0.9325554,-0.105838,-0.1366767,-0.04758757,172.17.160.76,0.0.0.0,4,unknown,2,2014-11-13 21:51:12.139,0,2014-11-13 21:44:53.658,0
2014-11-13 21:51:14.219,2902,96.73334,0,0,0,0,0,0,0,-1,0.05030823,0.7190857,-0.6600647,8.863697,22.7177,-20.27835,216.504,219.5872,10,-0.4811168,-0.134152,0.7812844,2.796091,0.1486818,-0.9564855,-0.4159725,-0.07124571,0.7903494,-0.127239,-0.12343,-0.0355546,172.17.160.76,0.0.0.0,4,unknown,2,2014-11-13 21:51:12.139,0,2014-11-13 21:44:53.658,0
2014-11-13 21:51:14.252,2903,96.76667,0,0,0,0,0,0,0,-1,0.102005,0.7503662,-0.6305389,9.69062,23.06226,-19.80905,215.5374,218.6206,10,-0.3886234,-0.2166018,0.8441927,2.841682,0.1835944,-0.9641292,-0.3552987,-0.1134528,0.8493941,-0.01326579,-0.08809328,-0.09888832,172.17.160.76,0.0.0.0,4,unknown,2,2014-11-13 21:51:12.139,0,2014-11-13 21:44:53.658,0
2014-11-13 21:51:14.285,2904,96.8,0,0,0,0,0,0,0,-1,0.1015472,0.7845154,-0.638382,10.37972,22.92444,-19.67502,213.1184,216.2016,10,-0.3593656,-0.4333794,0.9851803,2.890182,0.2177912,-0.9681585,-0.3001474,-0.2650094,0.9046479,-0.02971612,-0.07308038,-0.07166383,172.17.160.76,0.0.0.0,4,unknown,2,2014-11-13 21:51:12.139,0,2014-11-13 21:44:53.658,0
2014-11-13 21:51:14.319,2905,96.83334,0,0,0,0,0,0,0,-1,0.1668243,0.7816162,-0.6480408,10.58646,23.20009,-19.54092,212.307,215.3902,10,-0.3809306,-0.5488008,1.036666,2.944671,0.2522011,-0.9699232,-0.2952697,-0.3895046,1.02286,-0.03953116,-0.0403269,-0.09090402,172.17.160.76,0.0.0.0,4,unknown,2,2014-11-13 21:51:12.139,0,2014-11-13 21:44:53.658,0
