time,timestamp,recordtime,lat,long,alt,speed,course,verticalAccuracy,horizontalAccuracy,locTimeStamp,accelerationX,accelerationY,accelerationZ,HeadingX,HeadingY,HeadingZ,TrueHeading,MagneticHeading,HeadingAccuracy,RotationX,RotationY,RotationZ,motionYaw,motionRoll,motionPitch,motionRotationRateX,motionRotationRateY,motionRotationRateZ,motionUserAccelerationX,motionUserAccelerationY,motionUserAccelerationZ,en0,pdp_ip0,DeviceOrientation,Activity,Activity Confidence,Activity Start,Steps,Last Step Date,State
2014-11-13 21:25:26.632,30405,1013.5,40.10425,-88.22172,231,-1,-1,10.09077,165,1415935357,-0.5699005,-0.2722015,0.7510376,-11.52343,-21.52445,35.85236,128.4167,131.4998,10,0.03520566,0.01269369,-0.005372395,-0.7104111,-2.508262,0.3041375,0.08386206,0.06472898,0.01489251,-0.03307682,0.02259961,-0.005379957,172.17.160.76,0.0.0.0,3,walking,0,2014-11-13 21:25:00.491,336,2014-11-13 21:25:03.027,0
2014-11-13 21:25:26.664,30406,1013.533,40.10425,-88.22172,231,-1,-1,10.09077,165,1415935357,-0.5455017,-0.3244629,0.7468872,-11.55786,-21.28339,36.22119,127.957,131.0401,10,0.05871018,-0.03002981,-0.03328392,-0.7089695,-2.504851,0.2994671,0.1159313,0.03682687,-0.02039482,0.002793506,0.004499004,-0.01250015,172.17.160.76,0.0.0.0,3,walking,0,2014-11-13 21:25:00.491,336,2014-11-13 21:25:03.027,0
2014-11-13 21:25:26.698,30407,1013.567,40.10425,-88.22172,231,-1,-1,10.09077,165,1415935357,-0.532547,-0.3243866,0.7547607,-11.73005,-21.31781,35.91946,127.8945,130.9777,10,0.04485855,0.005090899,-0.02667822,-0.7061929,-2.504589,0.2984811,0.1223053,0.05710112,-0.008641358,0.0229889,-0.03039408,-0.02144993,172.17.160.76,0.0.0.0,3,walking,0,2014-11-13 21:25:00.491,336,2014-11-13 21:25:03.027,0
2014-11-13 21:25:26.732,30408,1013.6,40.10425,-88.22172,231,-1,-1,10.09077,165,1415935357,-0.5603027,-0.2979279,0.7530518,-11.38568,-21.31781,36.18762,127.6915,130.7747,10,0.002140915,-0.026638,-0.009701629,-0.7042229,-2.503047,0.2960996,0.08494473,0.06575599,0.009589214,0.03754281,-0.0325948,-0.01325954,172.17.160.76,0.0.0.0,3,walking,0,2014-11-13 21:25:00.491,336,2014-11-13 21:25:03.027,0
2014-11-13 21:25:26.765,30409,1013.633,40.10425,-88.22172,231,-1,-1,10.09077,165,1415935357,-0.5690002,-0.317337,0.7544403,-11.17907,-21.79995,36.18768,127.7234,130.8066,10,-0.003170227,-0.07778401,-0.02905775,-0.7024776,-2.504176,0.2959104,0.05940427,-0.0376181,-0.03226187,0.005077504,-0.01065055,-0.02009576,172.17.160.76,0.0.0.0,3,walking,0,2014-11-13 21:25:00.491,336,2014-11-13 21:25:03.027,0
2014-11-13 21:25:26.798,30410,1013.667,40.10425,-88.22172,231,-1,-1,10.09077,165,1415935357,-0.5539856,-0.2967682,0.761795,-11.07575,-21.62776,36.48938,127.631,130.7142,10,-0.007414507,-0.1236096,-0.04732837,-0.7008612,-2.505305,0.295556,0.06045221,-0.02586573,-0.02371435,-0.0005515086,-0.02606522,-0.01499245,172.17.160.76,0.0.0.0,3,walking,0,2014-11-13 21:25:00.491,336,2014-11-13 21:25:03.027,0
2014-11-13 21:25:26.832,30411,1013.7,40.10425,-88.22172,231,-1,-1,10.09077,165,1415935357,-0.5842133,-0.2975311,0.7541046,-11.35125,-21.62775,36.35529,127.5603,130.6435,10,-0.05113349,-0.2438614,-0.07433495,-0.6984166,-2.509057,0.2957247,0.03484866,-0.1152398,-0.04107646,0.0133743,-0.009241282,-0.01572214,172.17.160.76,0.0.0.0,3,walking,0,2014-11-13 21:25:00.491,336,2014-11-13 21:25:03.027,0
2014-11-13 21:25:26.865,30412,1013.733,40.10425,-88.22172,231,-1,-1,10.09077,165,1415935357,-0.5929565,-0.2746735,0.7674561,-11.35125,-21.21449,36.15411,126.9322,130.0154,10,-0.04151256,-0.1704748,-0.06443119,-0.697416,-2.51212,0.2974983,0.01136448,-0.1875395,-0.04986237,-0.02135582,-0.004401796,-0.0187257,172.17.160.76,0.0.0.0,3,walking,0,2014-11-13 21:25:00.491,336,2014-11-13 21:25:03.027,0
2014-11-13 21:25:26.899,30413,1013.767,40.10425,-88.22172,231,-1,-1,10.09077,165,1415935357,-0.5797577,-0.2880554,0.7609558,-11.17907,-21.31781,36.12064,126.9926,130.0758,10,-0.02859276,-0.07392029,-0.0820163,-0.6966825,-2.51286,0.2963422,0.03601969,-0.05160832,-0.05984599,-0.03047209,0.01735037,-0.006064027,172.17.160.76,0.0.0.0,3,walking,0,2014-11-13 21:25:00.491,336,2014-11-13 21:25:03.027,0
2014-11-13 21:25:26.932,30414,1013.8,40.10425,-88.22172,231,-1,-1,10.09077,165,1415935357,-0.554184,-0.2951965,0.7644196,-10.86914,-20.87012,36.0871,125.866,128.9491,10,-0.04774675,-0.09954896,-0.1001247,-0.6940826,-2.512274,0.2964977,0.02438832,-0.02308872,-0.08406281,-0.009140665,-0.001131902,-0.0130825,172.17.160.76,0.0.0.0,3,walking,0,2014-11-13 21:25:00.491,336,2014-11-13 21:25:03.027,0
2014-11-13 21:25:26.965,30415,1013.833,40.10425,-88.22172,231,-1,-1,10.09077,165,1415935357,-0.571579,-0.2877502,0.7548065,-11.17907,-20.62905,35.78537,125.7421,128.8252,10,-0.07870653,-0.04725832,-0.07213491,-0.6915423,-2.513546,0.2985307,-0.009775507,-0.006979131,-0.06368289,0.007179901,0.0008117282,-0.01360544,172.17.160.76,0.0.0.0,3,walking,0,2014-11-13 21:25:00.491,336,2014-11-13 21:25:03.027,0
2014-11-13 21:25:26.998,30416,1013.867,40.10425,-88.22172,231,-1,-1,10.09077,165,1415935357,-0.5634918,-0.2928467,0.7543793,-11.31681,-20.4913,35.71832,125.8055,128.8886,10,-0.06805788,0.05603238,-0.04190937,-0.6908617,-2.511243,0.2997335,-0.01296685,0.08775784,-0.04194108,-0.00843122,0.007515332,-0.01699841,172.17.160.76,0.0.0.0,3,walking,0,2014-11-13 21:25:00.491,336,2014-11-13 21:25:03.027,0
2014-11-13 21:25:27.032,30417,1013.9,40.10425,-88.22172,231,-1,-1,10.09077,165,1415935357,-0.5404968,-0.289505,0.7577972,-11.38568,-20.7668,35.65125,125.8818,128.965,10,-0.02867825,0.1062106,-0.007825166,-0.6907714,-2.507732,0.2998768,0.004062926,0.1538258,-0.01617986,-0.003537163,0.005592342,-0.01678267,172.17.160.76,0.0.0.0,3,walking,0,2014-11-13 21:25:00.491,336,2014-11-13 21:25:03.027,0
2014-11-13 21:25:27.065,30418,1013.933,40.10425,-88.22172,231,-1,-1,10.09077,165,1415935357,-0.5436096,-0.2841949,0.7795868,-11.5923,-20.90455,35.91946,125.8869,128.97,10,0.01814465,0.1010739,0.0185095,-0.6894004,-2.501284,0.2979916,0.06577954,0.1593965,0.02289069,0.02817397,0.009024481,0.0003063481,172.17.160.76,0.0.0.0,3,walking,0,2014-11-13 21:25:00.491,336,2014-11-13 21:25:03.027,0
2014-11-13 21:25:27.098,30419,1013.967,40.10425,-88.22172,231,-1,-1,10.09077,165,1415935357,-0.5275879,-0.2794647,0.7784271,-11.86779,-21.18005,35.85242,126.8296,129.9128,10,0.02343102,0.1150209,0.03660835,-0.6885028,-2.499497,0.2961117,0.08386046,0.1679532,0.03453903,0.02920167,0.007608396,0.01359851,172.17.160.76,0.0.0.0,3,walking,0,2014-11-13 21:25:00.491,336,2014-11-13 21:25:03.027,0
2014-11-13 21:25:27.132,30420,1014,40.10425,-88.22172,231,-1,-1,10.09077,165,1415935357,-0.5236816,-0.2680664,0.7882996,-12.21215,-21.45555,35.31604,128.9614,132.0446,10,0.02763616,0.05767821,0.04159804,-0.6872612,-2.49709,0.2927818,0.08380645,0.176595,0.0547508,0.04764561,0.009152062,0.01304698,172.17.160.76,0.0.0.0,3,walking,0,2014-11-13 21:25:00.491,336,2014-11-13 21:25:03.027,0
2014-11-13 21:25:27.165,30421,1014.033,40.10425,-88.22172,231,-1,-1,10.09077,165,1415935357,-0.5263519,-0.250946,0.7998352,-12.41877,-21.18005,34.9808,129.571,132.6542,10,0.03299843,-0.01479706,0.0125363,-0.6853027,-2.497706,0.2874392,0.1039916,0.06815557,0.05091699,0.04978512,0.02054269,0.02517281,172.17.160.76,0.0.0.0,3,walking,0,2014-11-13 21:25:00.491,336,2014-11-13 21:25:03.027,0
2014-11-13 21:25:27.198,30422,1014.067,40.10425,-88.22172,231,-1,-1,10.09077,165,1415935357,-0.471817,-0.2291107,0.8114014,-12.28102,-21.11118,35.18198,129.5645,132.6477,10,0.02579405,-0.02501987,-0.07559356,-0.6832362,-2.497167,0.2833776,0.09033475,0.05487898,-0.01915964,0.06591567,0.0419598,0.03511315,172.17.160.76,0.0.0.0,3,walking,0,2014-11-13 21:25:00.491,336,2014-11-13 21:25:03.027,0
2014-11-13 21:25:27.232,30423,1014.1,40.10425,-88.22172,231,-1,-1,10.09077,165,1415935357,-0.4730072,-0.25,0.8411713,-12.17771,-20.87012,36.08713,129.4781,132.5613,10,0.01005476,-0.1587159,-0.1930017,-0.6771138,-2.501088,0.2819867,0.08317383,-0.07469156,-0.1514386,0.1061328,0.04240931,0.0439142,172.17.160.76,0.0.0.0,3,walking,0,2014-11-13 21:25:00.491,336,2014-11-13 21:25:03.027,0
2014-11-13 21:25:27.265,30424,1014.133,40.10425,-88.22172,231,-1,-1,10.09077,165,1415935357,-0.4382324,-0.2922821,0.9206238,-11.38568,-21.31781,36.59,127.8435,130.9267,10,0.009170063,-0.1304246,-0.2459235,-0.6702636,-2.50818,0.2829112,0.06736001,-0.07939247,-0.2108482,0.1009315,0.02234688,0.08471781,172.17.160.76,0.0.0.0,3,walking,0,2014-11-13 21:25:00.491,336,2014-11-13 21:25:03.027,0
2014-11-13 21:25:27.298,30425,1014.167,40.10425,-88.22172,231,-1,-1,10.09077,165,1415935357,-0.4082947,-0.3231659,0.9706116,-11.45455,-21.31781,36.4559,127.6369,130.7201,10,0.02105255,-0.1191093,-0.2947366,-0.6627715,-2.512073,0.2852996,0.08245388,-0.05001501,-0.2595783,0.1267249,-0.01083716,0.1449873,172.17.160.76,0.0.0.0,3,walking,0,2014-11-13 21:25:00.491,336,2014-11-13 21:25:03.027,0
2014-11-13 21:25:27.331,30426,1014.2,40.10425,-88.22172,231,-1,-1,10.09077,165,1415935357,-0.4054565,-0.3729553,1.030136,-11.28236,-21.14562,36.55652,127.4728,130.556,10,0.03922597,-0.1628928,-0.3226337,-0.6569052,-2.514856,0.2871824,0.09534305,-0.06623233,-0.2958024,0.1541905,-0.03991476,0.1938367,172.17.160.76,0.0.0.0,3,walking,0,2014-11-13 21:25:00.491,336,2014-11-13 21:25:03.027,0
2014-11-13 21:25:27.365,30427,1014.233,40.10425,-88.22172,231,-1,-1,10.09077,165,1415935357,-0.4036102,-0.3798065,1.079071,-11.35123,-20.87012,36.89178,126.8018,129.885,10,0.02530083,-0.4086424,-0.3631505,-0.6408607,-2.529062,0.2923702,0.0856423,-0.2959179,-0.3192669,0.1246686,-0.08490048,0.2774084,172.17.160.76,0.0.0.0,6,walking,0,2014-11-13 21:25:00.491,336,2014-11-13 21:25:03.027,0
2014-11-13 21:25:27.398,30428,1014.267,40.10425,-88.22172,231,-1,-1,10.09077,165,1415935357,-0.3815613,-0.4204102,1.087967,-10.97243,-20.83568,37.39465,125.707,128.7902,10,0.02422598,-0.5310487,-0.3913896,-0.6340845,-2.537501,0.2947736,0.09102109,-0.3418204,-0.3471273,0.1399046,-0.08928327,0.2915509,172.17.160.76,0.0.0.0,6,walking,0,2014-11-13 21:25:00.491,336,2014-11-13 21:25:03.027,0
2014-11-13 21:25:27.431,30429,1014.3,40.10425,-88.22172,231,-1,-1,10.09077,165,1415935357,-0.4133759,-0.4835358,1.073593,-9.767155,-20.80124,37.96451,123.4258,126.5089,10,0.1050335,-0.8318373,-0.3975221,-0.618705,-2.561274,0.2998941,0.1197316,-0.600351,-0.3889327,0.143967,-0.1388461,0.286853,172.17.160.76,0.0.0.0,6,walking,0,2014-11-13 21:25:00.491,336,2014-11-13 21:25:03.027,0
2014-11-13 21:25:27.465,30430,1014.333,40.10425,-88.22172,231,-1,-1,10.09077,165,1415935357,-0.4400787,-0.5018921,1.065262,-8.355259,-20.7668,38.73563,121.4164,124.4996,10,0.1401792,-0.8988387,-0.4033139,-0.6102272,-2.577774,0.301504,0.1707529,-0.7650162,-0.3814991,0.1081197,-0.174662,0.2706655,172.17.160.76,0.0.0.0,6,walking,0,2014-11-13 21:25:00.491,336,2014-11-13 21:25:03.027,0
2014-11-13 21:25:27.498,30431,1014.367,40.10425,-88.22172,231,-1,-1,10.09077,165,1415935357,-0.3691711,-0.4332886,1.040833,-7.253296,-20.62905,39.00375,120.9993,124.0825,10,0.4339435,-0.7397228,-0.5617368,-0.5774485,-2.635209,0.2985507,0.4290975,-0.7149399,-0.4883511,0.03993271,-0.1948021,0.2277181,172.17.160.76,0.0.0.0,6,walking,0,2014-11-13 21:25:00.491,336,2014-11-13 21:25:03.027,0
2014-11-13 21:25:27.532,30432,1014.4,40.10425,-88.22172,231,-1,-1,10.09077,165,1415935357,-0.3450928,-0.5065613,0.9159088,-5.841408,-20.25024,39.77487,118.7842,121.8674,10,0.5857551,-0.7249061,-0.7012814,-0.5618392,-2.65316,0.294781,0.5830569,-0.653322,-0.6212885,0.07983077,-0.1427583,0.1958536,172.17.160.76,0.0.0.0,6,walking,0,2014-11-13 21:25:00.491,336,2014-11-13 21:25:03.027,0
2014-11-13 21:25:27.565,30433,1014.433,40.10425,-88.22172,231,-1,-1,10.09077,165,1415935357,-0.3774109,-0.4835205,0.8803101,-4.257332,-19.07932,40.31125,116.9658,120.049,10,0.5771283,-0.5873229,-0.6336513,-0.5234187,-2.690067,0.2840235,0.6472655,-0.5911564,-0.6870136,0.05202038,-0.2468184,0.024267,172.17.160.76,0.0.0.0,6,walking,0,2014-11-13 21:25:00.491,336,2014-11-13 21:25:03.027,0
2014-11-13 21:25:27.598,30434,1014.467,40.10425,-88.22172,231,-1,-1,10.09077,165,1415935357,-0.1615143,-0.5274811,0.9475555,-3.775223,-18.73495,40.64651,116.4449,119.5281,10,0.5148053,-0.4700224,-0.4406719,-0.5066303,-2.704774,0.2776519,0.6159499,-0.4496155,-0.5184368,0.0196496,-0.226619,-0.01182657,172.17.160.76,0.0.0.0,6,walking,0,2014-11-13 21:25:00.491,336,2014-11-13 21:25:03.027,0
2014-11-13 21:25:27.632,30435,1014.5,40.10425,-88.22172,231,-1,-1,10.09077,165,1415935357,0.5721283,-0.9832153,1.417511,-3.017624,-18.04618,41.04883,115.7362,118.8194,10,0.1242224,-0.691313,0.345122,-0.4893818,-2.72645,0.2640558,0.3103133,-0.5034972,0.06836179,0.3624856,-0.3626746,0.1252331,172.17.160.76,0.0.0.0,6,walking,0,2014-11-13 21:25:00.491,336,2014-11-13 21:25:03.027,0
2014-11-13 21:25:27.664,30436,1014.533,40.10425,-88.22172,231,-1,-1,10.09077,165,1415935357,1.104675,-1.31929,1.74823,-2.535515,-17.97729,41.18292,116.0782,119.1614,10,-0.9219728,-3.277837,2.646265,-0.5216489,-2.758786,0.2485797,-0.1804626,-1.714317,1.657108,1.174789,-0.8522086,0.640245,172.17.160.76,0.0.0.0,6,walking,0,2014-11-13 21:25:00.491,336,2014-11-13 21:25:03.027,0
2014-11-13 21:25:27.698,30437,1014.567,40.10425,-88.22172,231,-1,-1,10.09077,165,1415935357,0.411087,-1.180099,1.582504,-0.6070709,-17.90843,40.84766,117.7874,120.8706,10,-1.852968,-4.952234,3.743814,-0.6041201,-2.829639,0.2446138,-1.358602,-4.099128,3.221016,1.473807,-1.205938,0.924619,172.17.160.76,0.0.0.0,6,walking,0,2014-11-13 21:25:00.491,336,2014-11-13 21:25:03.027,0
2014-11-13 21:25:27.732,30438,1014.6,40.10425,-88.22172,231,-1,-1,10.09077,165,1415935357,-1.440613,0.2519684,1.665161,2.767704,-19.42371,39.30554,121.6483,124.7315,10,-2.279291,-4.798426,5.517833,-0.7412423,-2.958582,0.2736899,-2.42519,-6.336653,4.596337,0.5863043,-0.9098136,0.6358024,172.17.160.76,0.0.0.0,6,walking,0,2014-11-13 21:25:00.491,336,2014-11-13 21:25:03.027,0
2014-11-13 21:25:27.764,30439,1014.633,40.10425,-88.22172,231,-1,-1,10.09077,165,1415935357,-2.560852,0.3339844,2.156494,4.179604,-21.04229,37.86401,127.1535,130.2367,10,-2.793419,1.933453,5.560516,-0.9180831,-3.052148,0.321929,-2.069765,-2.542066,5.773066,-1.355876,0.5683655,0.7203264,172.17.160.76,0.0.0.0,6,walking,0,2014-11-13 21:25:00.491,336,2014-11-13 21:25:03.027,0
2014-11-13 21:25:27.798,30440,1014.667,40.10425,-88.22172,231,-1,-1,10.09077,165,1415935357,-3.001617,-1.281403,1.38118,2.285595,-25.55368,33.94177,150.7471,153.8303,10,-4.895228,7.53519,-0.229651,-1.170073,-2.819351,0.4487702,-4.481268,6.921925,0.7909548,-2.708043,0.5442094,1.359704,172.17.160.76,0.0.0.0,6,walking,0,2014-11-13 21:25:00.491,336,2014-11-13 21:25:03.027,0
2014-11-13 21:25:27.831,30441,1014.7,40.10425,-88.22172,231,-1,-1,10.09077,165,1415935357,3.305695,2.232925,0.4386902,-4.87719,-29.273,27.77341,158.3275,161.4107,10,-3.322565,15.22615,6.24391,-1.261757,-2.523097,0.5574432,-4.164045,10.99875,3.041409,-0.1019919,0.2491262,0.09439022,172.17.160.76,0.0.0.0,6,walking,0,2014-11-13 21:25:00.491,336,2014-11-13 21:25:03.027,0
2014-11-13 21:25:27.865,30442,1014.733,40.10425,-88.22172,231,-1,-1,10.09077,165,1415935357,1.009842,-0.2428894,0.5541077,-10.42147,-29.9962,24.05228,162.8647,165.9479,10,1.033193,-7.544705,-1.982927,-1.426796,-2.088652,0.4570694,1.413804,2.89547,3.36423,5.003691,4.994574,-1.628821,172.17.160.76,0.0.0.0,6,walking,0,2014-11-13 21:25:00.491,336,2014-11-13 21:25:03.027,0
2014-11-13 21:25:27.898,30443,1014.767,40.10425,-88.22172,231,-1,-1,10.09077,165,1415935357,-0.5773926,-0.11203,0.9564667,-14.65715,-30.23727,19.92886,206.7896,209.8728,10,1.440376,-11.75101,-3.744248,-1.376859,-2.270001,0.4803368,1.013361,-11.18467,-3.884034,2.365773,0.5379598,-0.8213881,172.17.160.76,0.0.0.0,6,walking,0,2014-11-13 21:25:00.491,336,2014-11-13 21:25:03.027,0
2014-11-13 21:25:27.932,30444,1014.8,40.10425,-88.22172,231,-1,-1,10.09077,165,1415935357,-0.7306976,-0.5164795,1.119324,-10.59365,-29.54851,20.73346,173.9252,177.0084,10,0.3217677,-7.756374,-2.621451,-1.233661,-2.765666,0.5144904,0.6567197,-9.232703,-2.488247,-0.6058545,0.1667433,0.1366746,172.17.160.76,0.0.0.0,6,walking,0,2014-11-13 21:25:00.491,336,2014-11-13 21:25:03.027,0
2014-11-13 21:25:27.965,30445,1014.833,40.10425,-88.22172,231,-1,-1,10.09077,165,1415935357,0.1450195,-0.1980438,0.7591553,-5.46262,-29.78957,22.30905,165.0685,168.1517,10,0.1591137,0.3675897,-0.7034841,-1.151326,-2.986929,0.5245232,0.1233297,-3.219231,-1.897305,-0.3736813,0.07202836,0.2152341,172.17.160.76,0.0.0.0,6,walking,0,2014-11-13 21:25:00.491,336,2014-11-13 21:25:03.027,0
2014-11-13 21:25:27.997,30446,1014.867,40.10425,-88.22172,231,-1,-1,10.09077,165,1415935357,0.5780182,-0.1600647,0.5292053,0.7359428,-29.58295,23.78409,158.2197,161.3029,10,0.5036216,2.134228,-0.3112146,-1.119995,-3.005523,0.5215349,0.3730457,1.500966,-0.4287072,0.262636,0.3001677,-0.09988584,172.17.160.76,0.0.0.0,6,walking,0,2014-11-13 21:25:00.491,336,2014-11-13 21:25:03.027,0
2014-11-13 21:25:28.032,30447,1014.9,40.10425,-88.22172,231,-1,-1,10.09077,165,1415935357,0.3502502,-0.05020142,0.501297,1.665726,-28.92863,23.81763,156.0048,159.088,10,1.281547,1.432497,0.6672324,-1.109545,-2.913441,0.4904739,1.069906,2.451636,0.2785135,0.7985883,0.3368735,-0.4361857,172.17.160.76,0.0.0.0,6,walking,0,2014-11-13 21:25:00.491,336,2014-11-13 21:25:03.027,0
2014-11-13 21:25:28.065,30448,1014.933,40.10425,-88.22172,231,-1,-1,10.09077,165,1415935357,0.09597778,-0.0284729,0.7802887,0.4260139,-28.51537,24.15286,154.8172,157.9004,10,2.039,-0.483393,0.7020737,-1.118139,-2.861285,0.4473208,1.574671,0.8452166,0.7564456,0.5996812,0.3823501,-0.3651229,172.17.160.76,0.0.0.0,6,walking,0,2014-11-13 21:25:00.491,336,2014-11-13 21:25:03.027,0
2014-11-13 21:25:28.098,30449,1014.967,40.10425,-88.22172,231,-1,-1,10.09077,165,1415935357,-0.4210663,-0.1257935,0.980896,-1.295807,-27.00008,25.56085,155.2499,158.3331,10,2.257496,-1.785916,0.7389787,-1.123219,-2.879886,0.3581181,2.385379,-1.426198,0.7127843,0.2308257,0.3121823,-0.08215828,172.17.160.76,0.0.0.0,6,walking,0,2014-11-13 21:25:00.491,336,2014-11-13 21:25:03.027,0
2014-11-13 21:25:28.131,30450,1015,40.10425,-88.22172,231,-1,-1,10.09077,165,1415935357,-0.6395721,-0.08984375,1.081345,-1.295807,-25.27818,26.90182,155.0626,158.1458,10,1.683356,-0.6343693,1.23229,-1.138435,-2.938661,0.2684833,1.818458,-1.143823,1.065622,-0.3426963,0.1280165,0.07793421,172.17.160.76,0.0.0.0,6,walking,0,2014-11-13 21:25:00.491,336,2014-11-13 21:25:03.027,0
2014-11-13 21:25:28.165,30451,1015.033,40.10425,-88.22172,231,-1,-1,10.09077,165,1415935357,-0.3540649,0.1530609,1.004349,-0.9858742,-23.93509,27.67282,157.3196,160.4028,10,1.662334,0.8931262,1.875179,-1.170658,-2.934752,0.2086787,1.740036,0.5812963,1.703397,-0.4028619,0.1851948,0.1254483,172.17.160.76,0.0.0.0,6,walking,0,2014-11-13 21:25:00.491,336,2014-11-13 21:25:03.027,0
2014-11-13 21:25:28.198,30452,1015.067,40.10425,-88.22172,231,-1,-1,10.09077,165,1415935357,-0.2807617,0.2528839,0.9442749,-1.984531,-21.07672,28.30978,160.0002,163.0834,10,1.58755,1.1661,1.997905,-1.201035,-2.909047,0.1667929,1.696971,1.173226,1.994337,-0.2105483,0.2720692,0.07243413,172.17.160.76,0.0.0.0,6,walking,0,2014-11-13 21:25:00.491,336,2014-11-13 21:25:03.027,0
2014-11-13 21:25:28.231,30453,1015.1,40.10425,-88.22172,231,-1,-1,10.09077,165,1415935357,-0.4818573,0.3569183,0.917511,-4.808327,-19.01044,30.12006,163.2519,166.3351,10,1.236787,-0.2005973,1.660839,-1.26106,-2.859977,0.0861853,1.445397,0.6431372,1.854495,-0.04702161,0.3689156,-0.03470943,172.17.160.76,0.0.0.0,6,walking,0,2014-11-13 21:25:00.491,336,2014-11-13 21:25:03.027,0
2014-11-13 21:25:28.265,30454,1015.133,40.10425,-88.22172,231,-1,-1,10.09077,165,1415935357,-0.6871796,0.3375549,0.9660645,-6.116913,-17.83955,30.65643,165.0837,168.1669,10,1.192527,-0.9758264,1.292834,-1.298819,-2.858462,0.03371957,1.254547,-0.4883743,1.575388,-0.2026533,0.3906315,-0.04212882,172.17.160.76,0.0.0.0,6,walking,0,2014-11-13 21:25:00.491,336,2014-11-13 21:25:03.027,0
2014-11-13 21:25:28.297,30455,1015.167,40.10425,-88.22172,231,-1,-1,10.09077,165,1415935357,-0.7896881,0.2437744,1.006836,-6.77121,-16.77196,31.9639,167.8339,170.9171,10,1.128239,-0.5427634,0.8038893,-1.334294,-2.892461,-0.02861869,1.293271,-0.8794387,1.007414,-0.4952073,0.277919,0.01706399,172.17.160.76,0.0.0.0,6,walking,0,2014-11-13 21:25:00.491,336,2014-11-13 21:25:03.027,0
2014-11-13 21:25:28.332,30456,1015.2,40.10425,-88.22172,231,-1,-1,10.09077,165,1415935357,-0.6124268,0.1898193,1.023438,-7.012264,-15.29111,32.4668,169.338,172.4211,10,1.037257,0.02083657,0.7159104,-1.350406,-2.908905,-0.06988104,1.133524,-0.1989583,0.7738235,-0.54391,0.1570435,0.04305774,172.17.160.76,0.0.0.0,6,walking,0,2014-11-13 21:25:00.491,336,2014-11-13 21:25:03.027,0
2014-11-13 21:25:28.365,30457,1015.233,40.10425,-88.22172,231,-1,-1,10.09077,165,1415935357,-0.4488525,0.2118378,1.03656,-6.84008,-13.46589,33.17081,170.9118,173.995,10,1.010568,0.6187115,0.5270305,-1.362929,-2.902245,-0.1071345,1.121733,0.5171451,0.6237236,-0.3767172,0.08288964,0.05751459,172.17.160.76,0.0.0.0,6,walking,0,2014-11-13 21:25:00.491,336,2014-11-13 21:25:03.027,0
2014-11-13 21:25:28.398,30458,1015.267,40.10425,-88.22172,231,-1,-1,10.09077,165,1415935357,-0.5001526,0.2799072,0.9513092,-7.49437,-11.64066,33.53952,171.6312,174.7144,10,0.6886532,0.6241054,0.5176495,-1.374078,-2.877,-0.1527562,0.8865337,0.6887246,0.5352818,-0.1725746,0.07108851,0.06937092,172.17.160.76,0.0.0.0,6,walking,0,2014-11-13 21:25:00.491,336,2014-11-13 21:25:03.027,0
2014-11-13 21:25:28.432,30459,1015.3,40.10425,-88.22172,231,-1,-1,10.09077,165,1415935357,-0.5357971,0.3563385,0.9230652,-8.768524,-10.36646,33.77417,172.4633,175.5464,10,0.4312523,0.8165252,0.3731422,-1.386435,-2.849078,-0.1826332,0.5084882,0.8390675,0.4398326,-0.2387276,0.1235562,0.001518219,172.17.160.76,0.0.0.0,6,walking,0,2014-11-13 21:25:00.491,336,2014-11-13 21:25:03.027,0
2014-11-13 21:25:28.465,30460,1015.333,40.10425,-88.22172,231,-1,-1,10.09077,165,1415935357,-0.4888611,0.3852234,0.8153687,-9.595001,-10.02209,33.90826,173.0014,176.0846,10,0.444864,0.9305127,0.1306121,-1.39155,-2.822572,-0.2001693,0.5198475,0.9682598,0.2409117,-0.2152997,0.1694509,-0.01818398,172.17.160.76,0.0.0.0,6,walking,0,2014-11-13 21:25:00.491,336,2014-11-13 21:25:03.027,0
2014-11-13 21:25:28.498,30461,1015.367,40.10425,-88.22172,231,-1,-1,10.09077,165,1415935357,-0.4671631,0.4444885,0.7346497,-11.24795,-9.471069,34.04236,173.732,176.8152,10,0.3665178,0.9834905,-0.03546825,-1.390667,-2.802329,-0.2104229,0.4735373,1.021085,0.05666539,-0.1729759,0.1642039,-0.06523574,172.17.160.76,0.0.0.0,6,walking,0,2014-11-13 21:25:00.491,336,2014-11-13 21:25:03.027,0
2014-11-13 21:25:28.532,30462,1015.4,40.10425,-88.22172,231,-1,-1,10.09077,165,1415935357,-0.4430084,0.4174042,0.7394409,-12.93534,-9.298874,33.40546,173.8673,176.9505,10,0.3416074,1.042498,-0.2441762,-1.378344,-2.744458,-0.2274991,0.402966,1.132893,-0.1982989,-0.07564178,0.2055648,-0.1446581,172.17.160.76,0.0.0.0,6,walking,0,2014-11-13 21:25:00.491,336,2014-11-13 21:25:03.027,0
2014-11-13 21:25:28.565,30463,1015.433,40.10425,-88.22172,231,-1,-1,10.09077,165,1415935357,-0.5255127,0.4385071,0.7056732,-13.55519,-8.954491,33.33838,173.4138,176.4969,10,0.314999,1.146734,-0.2318513,-1.370699,-2.720553,-0.2331026,0.4030704,1.101758,-0.2409226,-0.04535268,0.1864068,-0.14854,172.17.160.76,0.0.0.0,6,walking,0,2014-11-13 21:25:00.491,336,2014-11-13 21:25:03.027,0
2014-11-13 21:25:28.598,30464,1015.467,40.10425,-88.22172,231,-1,-1,10.09077,165,1415935357,-0.5407257,0.3951721,0.7865143,-15.62138,-7.921356,32.93613,173.1787,176.2619,10,0.4054578,1.377033,-0.1216447,-1.356187,-2.667161,-0.2439742,0.4307188,1.406391,-0.1407043,-0.114038,0.1903543,-0.1280861,172.17.160.76,0.0.0.0,6,walking,0,2014-11-13 21:25:00.491,336,2014-11-13 21:25:03.027,0
2014-11-13 21:25:28.632,30465,1015.5,40.10425,-88.22172,231,-1,-1,10.09077,165,1415935357,-0.5892334,0.4057312,0.6811676,-17.41208,-7.576965,32.26562,172.4547,175.5379,10,0.354361,1.6888,-0.06673749,-1.346295,-2.620991,-0.2555062,0.5127118,1.499203,-0.08638704,-0.0594718,0.142437,-0.05284239,172.17.160.76,0.0.0.0,6,walking,0,2014-11-13 21:25:00.491,336,2014-11-13 21:25:03.027,0
2014-11-13 21:25:28.665,30466,1015.533,40.10425,-88.22172,231,-1,-1,10.09077,165,1415935357,-0.7094574,0.4692841,0.4461517,-18.6518,-7.645836,31.6622,172.4445,175.5277,10,0.138699,2.561607,0.2613568,-1.338023,-2.566821,-0.2657894,0.3422268,1.979208,0.008066414,-0.06467997,0.1430602,-0.1286766,172.17.160.76,0.0.0.0,6,walking,0,2014-11-13 21:25:00.491,336,2014-11-13 21:25:03.027,0
2014-11-13 21:25:28.698,30467,1015.567,40.10425,-88.22172,231,-1,-1,10.09077,165,1415935357,-0.7953033,0.4915619,0.2787628,-21.85439,-7.542519,30.28769,173.4539,176.5371,10,0.4651048,3.564356,0.8057093,-1.3432,-2.458688,-0.2816284,0.3040696,3.377026,0.6439674,-0.1572852,0.1927828,-0.374317,172.17.160.76,0.0.0.0,6,walking,0,2014-11-13 21:25:00.491,336,2014-11-13 21:25:03.027,0
2014-11-13 21:25:28.731,30468,1015.6,40.10425,-88.22172,231,-1,-1,10.09077,165,1415935357,-0.7897949,0.4325256,0.2328033,-24.506,-6.888199,29.31546,177.6854,180.7686,10,1.969924,3.992199,1.415864,-1.344122,-2.303848,-0.3412174,1.735212,4.046876,1.355454,-0.0607393,0.1600401,-0.3854763,172.17.160.76,0.0.0.0,6,walking,0,2014-11-13 21:25:00.491,336,2014-11-13 21:25:03.027,0
2014-11-13 21:25:28.765,30469,1015.633,40.10425,-88.22172,231,-1,-1,10.09077,165,1415935357,-1.135513,0.1995392,0.6412048,-29.53372,-4.753036,26.7677,139.6365,142.7197,10,2.095194,3.645856,1.148201,-1.329213,-2.217619,-0.3892193,2.164713,3.953282,1.370336,-0.05147863,0.0530594,-0.3247757,172.17.160.76,0.0.0.0,6,walking,0,2014-11-13 21:25:00.491,336,2014-11-13 21:25:03.027,0
2014-11-13 21:25:28.798,30470,1015.667,40.10425,-88.22172,231,-1,-1,10.09077,165,1415935357,-1.187668,0.2858734,0.7025146,-34.42371,-1.515846,23.95175,130.2667,133.3499,10,1.446929,2.923557,0.2923315,-1.275827,-2.057126,-0.4590306,1.658392,3.076151,0.4218327,-0.3457206,-0.258158,0.3077595,172.17.160.76,0.0.0.0,6,walking,0,2014-11-13 21:25:00.491,336,2014-11-13 21:25:03.027,0
2014-11-13 21:25:28.832,30471,1015.7,40.10425,-88.22172,231,-1,-1,10.09077,165,1415935357,-1.635681,0.545578,0.6697235,-36.14552,-0.06944275,22.67783,126.9208,130.004,10,1.215194,2.758059,0.03014166,-1.248667,-1.985325,-0.4772314,1.407271,2.930317,0.2298767,-0.3746288,-0.1734482,0.3447562,172.17.160.76,0.0.0.0,6,walking,0,2014-11-13 21:25:00.491,336,2014-11-13 21:25:03.027,0
2014-11-13 21:25:28.865,30472,1015.733,40.10425,-88.22172,231,-1,-1,10.09077,165,1415935357,-1.257904,0.4795685,0.4272919,-39.07262,1.686897,19.76123,124.4946,127.5778,10,0.7128845,3.612594,-0.3933777,-1.195998,-1.844594,-0.4935954,1.048587,3.118009,-0.2666884,-0.7878488,0.07178283,0.431609,172.17.160.76,0.0.0.0,6,walking,0,2014-11-13 21:25:00.491,336,2014-11-13 21:25:03.027,0
2014-11-13 21:25:28.899,30473,1015.767,40.10425,-88.22172,231,-1,-1,10.09077,165,1415935357,-0.5326691,0.7450714,0.1992188,-41.20767,2.031273,15.80542,124.9021,127.9853,10,1.31087,2.326987,-0.3440053,-1.154989,-1.684393,-0.4855422,0.9360924,3.335036,-0.3797645,-0.1476454,0.06897181,0.2434066,172.17.160.76,0.0.0.0,6,walking,0,2014-11-13 21:25:00.491,336,2014-11-13 21:25:03.027,0
2014-11-13 21:25:28.931,30474,1015.8,40.10425,-88.22172,231,-1,-1,10.09077,165,1415935357,-0.7851257,0.6690216,-0.1114807,-42.96394,2.065712,12.15134,125.0324,128.1156,10,1.722252,-0.1044668,-0.9251811,-1.110184,-1.589544,-0.4770705,1.526811,1.663556,-0.4937423,0.3555187,0.2858927,0.1825653,172.17.160.76,0.0.0.0,6,walking,0,2014-11-13 21:25:00.491,336,2014-11-13 21:25:03.027,0
2014-11-13 21:25:28.965,30475,1015.833,40.10425,-88.22172,231,-1,-1,10.09077,165,1415935357,-1.857574,-0.4346008,1.310364,-43.51492,1.583565,11.21271,124.3584,127.4416,10,2.126895,-0.5767353,-1.247628,-1.05131,-1.556465,-0.4513023,1.955388,-0.6053686,-1.079434,0.1146617,0.2328838,-0.09858442,172.17.160.76,0.0.0.0,6,walking,0,2014-11-13 21:25:00.491,336,2014-11-13 21:25:03.027,0
