time,timestamp,recordtime,lat,long,alt,speed,course,verticalAccuracy,horizontalAccuracy,locTimeStamp,accelerationX,accelerationY,accelerationZ,HeadingX,HeadingY,HeadingZ,TrueHeading,MagneticHeading,HeadingAccuracy,RotationX,RotationY,RotationZ,motionYaw,motionRoll,motionPitch,motionRotationRateX,motionRotationRateY,motionRotationRateZ,motionUserAccelerationX,motionUserAccelerationY,motionUserAccelerationZ,en0,pdp_ip0,DeviceOrientation,Activity,Activity Confidence,Activity Start,Steps,Last Step Date,State
2014-11-13 21:28:07.447,3815,127.1667,40.10425,-88.22172,231,-1,-1,10,165,1415935650,-0.2940369,-0.7431946,0.6168213,-19.54717,-43.04827,9.673676,339.1618,342.245,10,-0.1172997,-0.05202485,-0.00195769,-2.229031,-2.681961,0.8256796,-0.0501232,-0.0002505987,0.0208795,-0.0006385826,-0.01364845,0.009440541,172.17.160.76,0.0.0.0,1,walking,0,2014-11-13 21:27:53.719,413,2014-11-13 21:27:24.088,0
2014-11-13 21:28:07.479,3816,127.2,40.10425,-88.22172,231,-1,-1,10,165,1415935650,-0.2877197,-0.7485504,0.608078,-19.75378,-43.25489,9.539581,339.1773,342.2605,10,-0.112922,-0.07573178,-0.04561968,-2.230119,-2.68116,0.8274467,-0.04149298,0.008003827,-0.01095615,0.0109281,-0.01289393,0.007763844,172.17.160.76,0.0.0.0,1,walking,0,2014-11-13 21:27:53.719,413,2014-11-13 21:27:24.088,0
2014-11-13 21:28:07.513,3817,127.2333,40.10425,-88.22172,231,-1,-1,10,165,1415935650,-0.2823944,-0.741745,0.5957031,-19.27168,-43.25489,8.802063,339.1895,342.2727,10,-0.1224623,-0.0801212,-0.06471375,-2.2293,-2.682412,0.8295834,-0.04997786,-0.02085242,-0.03337076,0.0138195,-0.01207519,-0.0001271535,172.17.160.76,0.0.0.0,1,walking,0,2014-11-13 21:27:53.719,413,2014-11-13 21:27:24.088,0
2014-11-13 21:28:07.547,3818,127.2667,40.10425,-88.22172,231,-1,-1,10,165,1415935650,-0.2742462,-0.7386475,0.5836029,-19.34055,-43.18602,8.802063,339.2036,342.2868,10,-0.1320241,-0.1004257,-0.0807071,-2.227851,-2.684399,0.8323289,-0.06164048,-0.01356277,-0.05346047,0.01475744,-0.002243909,-0.008315849,172.17.160.76,0.0.0.0,1,walking,0,2014-11-13 21:27:53.719,413,2014-11-13 21:27:24.088,0
2014-11-13 21:28:07.580,3819,127.3,40.10425,-88.22172,231,-1,-1,10,165,1415935650,-0.289444,-0.7368011,0.5657349,-19.65047,-43.0827,8.835541,339.2269,342.3101,10,-0.1501216,-0.1047389,-0.09021538,-2.224905,-2.688608,0.8386025,-0.082853,-0.03708497,-0.07684378,0.01928622,0.004146645,-0.02796067,172.17.160.76,0.0.0.0,1,walking,0,2014-11-13 21:27:53.719,413,2014-11-13 21:27:24.088,0
2014-11-13 21:28:07.613,3820,127.3333,40.10425,-88.22172,231,-1,-1,10,165,1415935650,-0.3042755,-0.7230682,0.5714569,-19.54717,-43.46152,8.667999,339.2867,342.3698,10,-0.1629727,-0.09287614,-0.06781367,-2.224511,-2.689467,0.8414987,-0.09249909,-0.03695967,-0.06088541,0.001668534,0.008841479,-0.03365698,172.17.160.76,0.0.0.0,1,walking,0,2014-11-13 21:27:53.719,413,2014-11-13 21:27:24.088,0
2014-11-13 21:28:07.647,3821,127.3667,40.10425,-88.22172,231,-1,-1,10,165,1415935650,-0.275589,-0.7327423,0.5762177,-19.58161,-43.63371,8.500366,339.3572,342.4404,10,-0.1384141,-0.01527057,-0.06112807,-2.226226,-2.687267,0.8457819,-0.08078291,0.03864292,-0.0392977,-0.00430754,0.02314809,-0.02450927,172.17.160.76,0.0.0.0,1,walking,0,2014-11-13 21:27:53.719,413,2014-11-13 21:27:24.088,0
2014-11-13 21:28:07.680,3822,127.4,40.10425,-88.22172,231,-1,-1,10,165,1415935650,-0.287323,-0.7359009,0.5879517,-19.0995,-43.84034,8.701538,339.3784,342.4616,10,-0.122388,-0.0451752,-0.08045223,-2.225459,-2.686496,0.8485591,-0.06473725,0.0406234,-0.0573937,0.02038313,0.02018036,-0.01731903,172.17.160.76,0.0.0.0,1,walking,0,2014-11-13 21:27:53.719,413,2014-11-13 21:27:24.088,0
2014-11-13 21:28:07.713,3823,127.4333,40.10425,-88.22172,231,-1,-1,10,165,1415935650,-0.2754822,-0.7514496,0.6012573,-19.27169,-43.5304,8.735107,339.4324,342.5156,10,-0.145811,-0.004784635,-0.08015183,-2.223261,-2.686921,0.8512966,-0.05084122,0.05436536,-0.06586504,-0.002577026,0.009932756,0.004119536,172.17.160.76,0.0.0.0,1,walking,0,2014-11-13 21:27:53.719,413,2014-11-13 21:27:24.088,0
2014-11-13 21:28:07.747,3824,127.4667,40.10425,-88.22172,231,-1,-1,10,165,1415935650,-0.2700958,-0.7615662,0.5996246,-19.03063,-43.90922,8.165161,339.4825,342.5657,10,-0.1713949,-0.02819702,-0.08654821,-2.221513,-2.687468,0.8529125,-0.07959081,0.06185169,-0.0625229,0.0206132,-0.004872438,0.01013541,172.17.160.76,0.0.0.0,1,walking,0,2014-11-13 21:27:53.719,413,2014-11-13 21:27:24.088,0
2014-11-13 21:28:07.780,3825,127.5,40.10425,-88.22172,231,-1,-1,10,165,1415935650,-0.2688751,-0.7610779,0.5893555,-19.44387,-43.63371,7.829956,339.5234,342.6066,10,-0.1660878,-0.08030709,-0.0921499,-2.219414,-2.688581,0.8566851,-0.113697,0.02884419,-0.07318772,0.01655769,-0.005890511,0.01074088,172.17.160.76,0.0.0.0,1,walking,0,2014-11-13 21:27:53.719,413,2014-11-13 21:27:24.088,0
2014-11-13 21:28:07.813,3826,127.5333,40.10425,-88.22172,231,-1,-1,10,165,1415935650,-0.2908783,-0.7759705,0.5870819,-19.0995,-43.56484,7.561737,339.6109,342.6941,10,-0.1661197,-0.05467683,-0.0750311,-2.217134,-2.691265,0.8621277,-0.09454609,-0.02004818,-0.07352062,0.008359997,-0.01053112,-0.0006581346,172.17.160.76,0.0.0.0,1,walking,0,2014-11-13 21:27:53.719,413,2014-11-13 21:27:24.088,0
2014-11-13 21:28:07.847,3827,127.5667,40.10425,-88.22172,231,-1,-1,10,165,1415935650,-0.2838898,-0.7748718,0.592514,-18.85844,-42.77276,7.796387,339.716,342.7992,10,-0.159812,-0.002292982,-0.03231959,-2.217432,-2.690045,0.8680107,-0.09679199,0.05368754,-0.01792756,-0.005589777,-0.01226965,0.009774706,172.17.160.76,0.0.0.0,1,walking,0,2014-11-13 21:27:53.719,413,2014-11-13 21:27:24.088,0
2014-11-13 21:28:07.880,3828,127.6,40.10425,-88.22172,231,-1,-1,10,165,1415935650,-0.3024139,-0.7690735,0.6005249,-18.54851,-43.01383,7.96402,339.768,342.8512,10,-0.1567049,-0.04678002,-0.01345882,-2.218603,-2.687636,0.8705578,-0.09257858,0.04103709,-0.004211252,0.0001298521,-0.007757175,0.01238748,172.17.160.76,0.0.0.0,1,walking,0,2014-11-13 21:27:53.719,413,2014-11-13 21:27:24.088,0
2014-11-13 21:28:07.913,3829,127.6333,40.10425,-88.22172,231,-1,-1,10,165,1415935650,-0.3256531,-0.7888031,0.6024475,-18.89288,-43.22046,7.96402,339.8881,342.9713,10,-0.1471575,-0.04134398,0.00351777,-2.221259,-2.68501,0.8719921,-0.08413868,0.005065013,0.01680015,-0.03081671,-0.008390087,0.0213492,172.17.160.76,0.0.0.0,1,walking,0,2014-11-13 21:27:53.719,413,2014-11-13 21:27:24.088,0
2014-11-13 21:28:07.947,3830,127.6667,40.10425,-88.22172,231,-1,-1,10,165,1415935650,-0.3378601,-0.772583,0.610199,-19.27169,-43.87479,8.064636,340.0272,343.1104,10,-0.1355051,-0.0251951,0.03221919,-2.22549,-2.680007,0.8728933,-0.07458588,0.04136786,0.04031358,-0.04067419,-0.01891904,0.02656753,172.17.160.76,0.0.0.0,1,walking,0,2014-11-13 21:27:53.719,413,2014-11-13 21:27:24.088,0
2014-11-13 21:28:07.980,3831,127.7,40.10425,-88.22172,231,-1,-1,10,165,1415935650,-0.3331909,-0.7659912,0.609375,-19.61606,-43.80591,8.131653,340.1015,343.1847,10,-0.08955491,-0.03720223,-0.007290936,-2.229673,-2.675096,0.8730469,-0.05538793,0.0370861,0.03703915,-0.04889134,-0.006292917,0.03635531,172.17.160.76,0.0.0.0,1,walking,0,2014-11-13 21:27:53.719,413,2014-11-13 21:27:24.088,0
2014-11-13 21:28:08.013,3832,127.7333,40.10425,-88.22172,231,-1,-1,10,165,1415935650,-0.3276062,-0.7719421,0.6063232,-19.7538,-44.01254,7.796448,340.2255,343.3087,10,-0.05107517,-0.06834843,-0.04899684,-2.231274,-2.672762,0.872915,-0.00411995,0.01446706,-0.0004213233,-0.04283849,0.0002141583,0.03611694,172.17.160.76,0.0.0.0,1,walking,0,2014-11-13 21:27:53.719,413,2014-11-13 21:27:24.088,0
2014-11-13 21:28:08.047,3833,127.7667,40.10425,-88.22172,231,-1,-1,10,165,1415935650,-0.2989655,-0.7571411,0.6022034,-19.54718,-43.66815,7.461243,340.3372,343.4204,10,-0.05731495,-0.06021993,-0.09882032,-2.230489,-2.672665,0.8709388,0.01202947,-0.005080091,-0.05577374,-0.03283683,-0.002293238,0.03073673,172.17.160.76,0.0.0.0,1,walking,0,2014-11-13 21:27:53.719,413,2014-11-13 21:27:24.088,0
2014-11-13 21:28:08.080,3834,127.8,40.10425,-88.22172,231,-1,-1,10,165,1415935650,-0.2681122,-0.7433319,0.5821228,-19.03063,-43.90922,7.159515,340.3654,343.4486,10,-0.04967674,-0.145831,-0.1789109,-2.226774,-2.675612,0.8704711,0.007892833,-0.0128369,-0.09825643,0.007835327,0.0167536,0.01453205,172.17.160.76,0.0.0.0,1,walking,0,2014-11-13 21:27:53.719,413,2014-11-13 21:27:24.088,0
2014-11-13 21:28:08.113,3835,127.8333,40.10425,-88.22172,231,-1,-1,10,165,1415935650,-0.259079,-0.7340851,0.5563049,-18.37635,-44.21917,7.125977,340.3942,343.4774,10,-0.05815651,-0.2045015,-0.2099711,-2.219768,-2.683293,0.8718551,0.02087049,-0.1133765,-0.1848153,0.01877438,0.02512166,-0.001175572,172.17.160.76,0.0.0.0,1,walking,0,2014-11-13 21:27:53.719,413,2014-11-13 21:27:24.088,0
2014-11-13 21:28:08.147,3836,127.8667,40.10425,-88.22172,231,-1,-1,10,165,1415935650,-0.2341919,-0.7315063,0.5461884,-17.85979,-44.80461,6.958344,340.5563,343.6395,10,-0.08371168,-0.2961201,-0.2432638,-2.206002,-2.701615,0.875749,-0.01541169,-0.1909855,-0.192519,0.03064133,0.03898896,-0.03243179,172.17.160.76,0.0.0.0,1,walking,0,2014-11-13 21:27:53.719,413,2014-11-13 21:27:24.088,0
2014-11-13 21:28:08.180,3837,127.9,40.10425,-88.22172,231,-1,-1,10,165,1415935650,-0.2520752,-0.7417297,0.5487976,-17.89424,-44.90793,7.260071,342.4551,345.5383,10,-0.09099675,-0.4008904,-0.3287068,-2.203072,-2.706054,0.8768257,-0.01747358,-0.2294858,-0.22562,0.03565205,0.03720615,-0.03369555,172.17.160.76,0.0.0.0,1,walking,0,2014-11-13 21:27:53.719,413,2014-11-13 21:27:24.088,0
2014-11-13 21:28:08.213,3838,127.9333,40.10425,-88.22172,231,-1,-1,10,165,1415935650,-0.2584686,-0.7526093,0.5586243,-17.61874,-44.9768,7.796448,343.6824,346.7656,10,-0.2826445,-0.3918224,-0.4064911,-2.182528,-2.737809,0.8861141,-0.171781,-0.3227104,-0.3391118,-0.009026578,0.005348189,-0.01136212,172.17.160.76,0.0.0.0,1,walking,0,2014-11-13 21:27:53.719,413,2014-11-13 21:27:24.088,0
2014-11-13 21:28:08.247,3839,127.9667,40.10425,-88.22172,231,-1,-1,10,165,1415935650,-0.2864685,-0.7922211,0.588089,-17.51543,-45.42449,7.96405,346.7435,349.8267,10,-0.5177659,-0.5643015,-0.6082005,-2.167344,-2.760705,0.8985886,-0.3610238,-0.4484664,-0.5418085,-0.04460185,-0.003653506,0.008108706,172.17.160.76,0.0.0.0,1,walking,0,2014-11-13 21:27:53.719,413,2014-11-13 21:27:24.088,0
2014-11-13 21:28:08.280,3840,128,40.10425,-88.22172,231,-1,-1,10,165,1415935650,-0.2158051,-0.8325348,0.5987701,-16.20685,-45.56224,7.96405,346.7122,349.7953,10,-0.5596606,-0.5448577,-0.8510206,-2.13883,-2.804351,0.9269145,-0.5619805,-0.5146309,-0.7335328,-0.06807657,0.004239254,0.03354656,172.17.160.76,0.0.0.0,1,walking,0,2014-11-13 21:27:53.719,413,2014-11-13 21:27:24.088,0
2014-11-13 21:28:08.313,3841,128.0333,40.10425,-88.22172,231,-1,-1,10,165,1415935650,-0.1022644,-0.9157104,0.5719299,-14.89827,-46.04437,7.427673,350.9406,354.0238,10,-0.4397854,-0.7462524,-1.06058,-2.1073,-2.844349,0.9490013,-0.4623713,-0.4700676,-0.8769712,0.05712476,-0.07330476,0.04946346,172.17.160.76,0.0.0.0,1,walking,0,2014-11-13 21:27:53.719,413,2014-11-13 21:27:24.088,0
2014-11-13 21:28:08.347,3842,128.0667,40.10425,-88.22172,231,-1,-1,10,165,1415935650,-0.03230286,-0.9987335,0.6907501,-13.03871,-45.9755,6.690125,354.856,357.9392,10,-0.418806,-0.8178008,-0.9655024,-2.07821,-2.879944,0.9622144,-0.3735496,-0.6796203,-1.042937,0.05212083,-0.1223658,0.02107198,172.17.160.76,0.0.0.0,1,walking,0,2014-11-13 21:27:53.719,413,2014-11-13 21:27:24.088,0
2014-11-13 21:28:08.380,3843,128.1,40.10425,-88.22172,231,-1,-1,10,165,1415935650,0.1347656,-1.152008,0.7421875,-11.93674,-45.9755,6.153748,357.313,0.3962402,10,-0.2726696,-0.9080437,-0.6640025,-2.01871,-2.958485,0.9831462,-0.2516735,-0.7225935,-0.8154013,0.1137827,-0.2135764,0.1720703,172.17.160.76,0.0.0.0,1,walking,0,2014-11-13 21:27:53.719,413,2014-11-13 21:27:24.088,0
2014-11-13 21:28:08.413,3844,128.1333,40.10425,-88.22172,231,-1,-1,10,165,1415935650,0.1931152,-1.340164,0.8201599,-10.1116,-46.35431,6.053162,2.989947,6.073137,10,-0.1859603,-1.347062,-0.5413842,-1.994619,-2.99419,0.9898968,-0.2064346,-0.8414124,-0.6463593,0.2153639,-0.3160387,0.1993623,172.17.160.76,0.0.0.0,1,walking,0,2014-11-13 21:27:53.719,413,2014-11-13 21:27:24.088,0
2014-11-13 21:28:08.447,3845,128.1667,40.10425,-88.22172,231,-1,-1,10,165,1415935650,0.3580627,-1.780518,1.042892,-8.975197,-47.07751,6.891205,9.166813,12.25,10,-0.0594596,-1.303103,-0.05759059,-1.950837,-3.111454,0.9987126,-0.05914074,-1.439165,-0.1511623,0.2936274,-0.7901915,0.4714492,172.17.160.76,0.0.0.0,1,walking,0,2014-11-13 21:27:53.719,413,2014-11-13 21:27:24.088,0
2014-11-13 21:28:08.480,3846,128.2,40.10425,-88.22172,231,-1,-1,10,165,1415935650,0.7470856,-2.631424,1.018906,-8.493088,-47.28414,7.762848,13.25758,16.34077,10,0.05280596,-1.321009,0.5352632,-1.955142,3.139773,0.9971348,0.1199778,-1.114067,0.277656,0.55341,-1.319337,0.4685508,172.17.160.76,0.0.0.0,1,walking,0,2014-11-13 21:27:53.719,413,2014-11-13 21:27:24.088,0
2014-11-13 21:28:08.514,3847,128.2333,40.10425,-88.22172,231,-1,-1,10,165,1415935650,0.7713776,-3.144302,1.231491,-8.630833,-46.93977,9.908356,22.23555,25.31874,10,-0.5126034,-2.970382,2.015831,-2.00573,3.131885,0.9963837,-0.1470159,-2.382795,1.527708,0.8066151,-1.996044,0.5175359,172.17.160.76,0.0.0.0,1,walking,0,2014-11-13 21:27:53.719,413,2014-11-13 21:27:24.088,0
2014-11-13 21:28:08.547,3848,128.2667,40.10425,-88.22172,231,-1,-1,10,165,1415935650,0.1272736,-3.621872,1.563049,-9.698364,-46.56095,11.48398,28.26668,31.34987,10,-0.631452,-2.437793,3.029612,-2.136155,-3.129463,1.013547,-0.7462004,-2.869928,2.838316,0.7004148,-2.482052,0.8045593,172.17.160.76,0.0.0.0,1,walking,0,2014-11-13 21:27:53.719,413,2014-11-13 21:27:24.088,0
2014-11-13 21:28:08.581,3849,128.3,40.10425,-88.22172,231,-1,-1,10,165,1415935650,-0.7575684,-3.222122,1.54425,-13.38307,-45.76888,14.06534,37.84605,40.92924,10,0.2335124,-0.9609937,3.627518,-2.317879,-3.037343,1.016918,0.06650807,-1.583469,3.412082,-0.3523389,-2.609668,0.8905778,172.17.160.76,0.0.0.0,1,walking,0,2014-11-13 21:27:53.719,413,2014-11-13 21:27:24.088,0
2014-11-13 21:28:08.614,3850,128.3333,40.10425,-88.22172,231,-1,-1,10,165,1415935650,-3.315384,-1.287903,2.763641,-19.65051,-43.97809,13.79715,42.4002,45.48339,10,-4.023405,3.39565,4.086747,-2.60813,-2.80185,0.9780355,-0.2712754,0.2852069,4.189577,-2.592061,-0.77033,1.533018,172.17.160.76,0.0.0.0,1,walking,0,2014-11-13 21:27:53.719,413,2014-11-13 21:27:24.088,0
2014-11-13 21:28:08.647,3851,128.3667,40.10425,-88.22172,231,-1,-1,10,165,1415935650,-1.880554,3.496689,2.110352,-26.33119,-40.67203,6.08667,15.57639,18.65958,10,-3.482068,16.89186,8.300878,-2.88394,-2.488154,1.005225,-4.818993,5.264722,3.670243,-4.6128,1.02777,1.940526,172.17.160.76,0.0.0.0,1,walking,0,2014-11-13 21:27:53.719,413,2014-11-13 21:27:24.088,0
2014-11-13 21:28:08.680,3852,128.4,40.10425,-88.22172,231,-1,-1,10,165,1415935650,6.307617,2.128265,-2.060593,-28.91392,-37.95143,0.1529541,14.45459,17.53778,10,-0.4175019,-8.100289,-7.139222,3.050301,-1.75903,0.8829575,-2.552939,21.56306,9.708867,3.891553,6.280692,3.45133,172.17.160.76,0.0.0.0,1,walking,0,2014-11-13 21:27:53.719,413,2014-11-13 21:27:24.088,0
2014-11-13 21:28:08.713,3853,128.4333,40.10425,-88.22172,231,-1,-1,10,165,1415935650,-1.665649,1.128632,0.1908264,-29.05166,-36.78053,-7.624542,323.8904,326.9736,10,-0.3946887,-7.842705,-11.45606,3.1075,-1.956356,1.05662,-0.2511746,-11.71148,-10.12301,-1.297797,1.499009,-0.9130499,172.17.160.76,0.0.0.0,1,walking,0,2014-11-13 21:27:53.719,413,2014-11-13 21:27:24.088,0
2014-11-13 21:28:08.747,3854,128.4667,40.10425,-88.22172,231,-1,-1,10,165,1415935650,0.4940033,1.320221,0.08660889,-22.09549,-38.91569,-8.697357,346.3807,349.4639,10,-0.8995734,4.832682,-4.835954,-2.684178,-2.566926,1.307504,-1.128343,-0.8042104,-7.764176,-1.190504,2.147164,-0.4696614,172.17.160.76,0.0.0.0,1,walking,0,2014-11-13 21:27:53.719,413,2014-11-13 21:27:24.088,0
2014-11-13 21:28:08.780,3855,128.5,40.10425,-88.22172,231,-1,-1,10,165,1415935650,2.454193,1.184143,-1.167801,-16.96446,-41.42968,-7.993378,10.60776,13.69095,10,-0.1730717,5.051435,-2.125437,-1.890048,3.117576,1.38843,-0.4143394,5.989844,-2.770767,1.66311,1.862507,-0.9857172,172.17.160.76,0.0.0.0,1,walking,0,2014-11-13 21:27:53.719,413,2014-11-13 21:27:24.088,0
2014-11-13 21:28:08.813,3856,128.5333,40.10425,-88.22172,231,-1,-1,10,165,1415935650,2.017395,0.8727875,-1.059982,-7.494427,-43.94366,-8.898529,19.57828,22.66147,10,0.740657,-0.1301567,-1.717752,-1.580161,2.928616,1.376587,0.621897,1.660628,-1.763562,2.596552,2.228775,-1.40294,172.17.160.76,0.0.0.0,1,walking,0,2014-11-13 21:27:53.719,413,2014-11-13 21:27:24.088,0
2014-11-13 21:28:08.847,3857,128.5667,40.10425,-88.22172,231,-1,-1,10,165,1415935650,0.5622864,0.549881,-0.6349182,-4.016338,-44.32248,-9.602509,16.5258,19.609,10,1.090892,0.1381376,-0.7782393,-1.413671,2.752546,1.338654,0.9560661,-0.7765569,-1.134389,1.306656,1.791734,-1.159007,172.17.160.76,0.0.0.0,1,walking,0,2014-11-13 21:27:53.719,413,2014-11-13 21:27:24.088,0
2014-11-13 21:28:08.880,3858,128.6,40.10425,-88.22172,231,-1,-1,10,165,1415935650,0.8998718,0.06529236,-0.8566437,-1.089237,-45.73444,-8.764374,18.99198,22.07517,10,3.012075,4.228096,0.9174917,-1.433081,2.808741,1.291555,2.122304,2.915511,0.1661405,0.4722285,1.511146,-0.8954166,172.17.160.76,0.0.0.0,1,walking,0,2014-11-13 21:27:53.719,413,2014-11-13 21:27:24.088,0
2014-11-13 21:28:08.913,3859,128.6333,40.10425,-88.22172,231,-1,-1,10,165,1415935650,1.101685,0.8451996,-0.7876282,-0.744873,-46.97421,-5.210846,10.109,13.1922,10,4.505096,3.147593,1.874283,-1.569559,3.060859,1.209139,3.56446,4.397285,1.320251,1.004684,1.027109,-1.167919,172.17.160.76,0.0.0.0,1,walking,0,2014-11-13 21:27:53.719,413,2014-11-13 21:27:24.088,0
2014-11-13 21:28:08.947,3860,128.6667,40.10425,-88.22172,231,-1,-1,10,165,1415935650,0.7115631,1.555191,-0.1304321,-1.67466,-47.35302,-2.361267,1.565946,4.649137,10,7.286085,-1.676561,1.465885,-1.709143,-2.984687,1.013696,5.952227,0.806814,1.882586,1.082803,2.003882,-1.210999,172.17.160.76,0.0.0.0,1,walking,0,2014-11-13 21:27:53.719,413,2014-11-13 21:27:24.088,0
2014-11-13 21:28:08.980,3861,128.7,40.10425,-88.22172,231,-1,-1,10,165,1415935650,-0.2638855,1.844406,0.5178986,-2.535568,-46.97421,1.762146,353.2407,356.3239,10,7.494442,-1.773665,1.28308,-1.727003,-2.984948,0.871905,7.352366,-1.609922,1.483545,0.8119318,2.320747,-0.7659243,172.17.160.76,0.0.0.0,1,walking,0,2014-11-13 21:27:53.719,413,2014-11-13 21:27:24.088,0
2014-11-13 21:28:09.013,3862,128.7333,40.10425,-88.22172,231,-1,-1,10,165,1415935650,-1.313797,2.248398,1.877258,-7.597733,-40.67203,18.42349,192.5149,195.5981,10,8.595244,3.099574,4.786281,-1.777476,-2.977177,0.4731876,8.426049,2.328706,3.490544,-1.224808,2.376334,0.9106564,172.17.160.76,0.0.0.0,1,walking,0,2014-11-13 21:27:53.719,413,2014-11-13 21:27:24.088,0
2014-11-13 21:28:09.047,3863,128.7667,40.10425,-88.22172,231,-1,-1,10,165,1415935650,-1.690887,2.048218,2.203491,-10.83476,-36.53946,24.3237,192.3506,195.4337,10,5.433051,4.836027,7.442926,-1.932009,-2.792906,0.1041016,6.512765,4.127578,7.036608,-1.359054,2.116548,1.298786,172.17.160.76,0.0.0.0,1,walking,0,2014-11-13 21:27:53.719,413,2014-11-13 21:27:24.088,0
2014-11-13 21:28:09.080,3864,128.8,40.10425,-88.22172,231,-1,-1,10,165,1415935650,-0.686142,3.111404,1.73053,-20.47697,-24.76163,31.56488,198.9542,202.0374,10,5.443069,4.122231,8.888053,-2.083012,-2.639649,-0.1376885,5.043161,5.383306,8.610164,-0.8402415,2.634871,1.045649,172.17.160.76,0.0.0.0,1,walking,0,2014-11-13 21:27:53.719,413,2014-11-13 21:27:24.088,0
2014-11-13 21:28:09.113,3865,128.8333,40.10425,-88.22172,231,-1,-1,10,165,1415935650,-0.7651978,3.245911,1.447189,-30.53242,-9.195602,33.24112,208.1027,211.1859,10,5.3048,-1.43305,6.308575,-2.219087,-2.594475,-0.4111661,5.59048,0.2724235,7.518657,0.005235507,2.692012,0.8295472,172.17.160.76,0.0.0.0,1,walking,0,2014-11-13 21:27:53.719,413,2014-11-13 21:27:24.088,0
2014-11-13 21:28:09.147,3866,128.8667,40.10425,-88.22172,231,-1,-1,10,165,1415935650,-1.18277,3.170792,1.503464,-32.73635,-1.412598,32.90588,212.4156,215.4987,10,5.460618,-2.497643,4.212328,-2.251676,-2.61861,-0.4916338,5.371079,-1.366413,6.326234,-0.08501858,2.656031,0.7141629,172.17.160.76,0.0.0.0,1,walking,0,2014-11-13 21:27:53.719,413,2014-11-13 21:27:24.088,0
2014-11-13 21:28:09.180,3867,128.9,40.10425,-88.22172,231,-1,-1,10,165,1415935650,-1.316177,2.307358,1.439987,-31.66882,12.74146,31.26321,220.4399,223.5231,10,5.036456,-0.2637131,2.97207,-2.329931,-2.762958,-0.83289,5.730166,-1.163375,3.25403,-1.185082,2.016484,0.9172682,172.17.160.76,0.0.0.0,1,walking,0,2014-11-13 21:27:53.719,413,2014-11-13 21:27:24.088,0
2014-11-13 21:28:09.214,3868,128.9333,40.10425,-88.22172,231,-1,-1,10,165,1415935650,-1.131134,2.139099,1.357468,-29.60263,18.04492,30.12338,105.6577,108.7408,10,4.382811,1.272129,2.707681,-2.38281,-2.813725,-1.010483,4.715895,0.5442532,2.7796,-1.058382,1.42789,0.9204882,172.17.160.76,0.0.0.0,1,walking,0,2014-11-13 21:27:53.719,413,2014-11-13 21:27:24.088,0
2014-11-13 21:28:09.247,3869,128.9667,40.10425,-88.22172,231,-1,-1,10,165,1415935650,-1.022903,1.962296,1.251709,-25.95238,27.06771,24.75961,79.1507,82.23389,10,3.36197,4.500981,3.737976,-2.521404,-2.84896,-1.207397,3.917168,3.46492,3.253347,-0.9565733,1.038237,0.9279066,172.17.160.76,0.0.0.0,1,walking,0,2014-11-13 21:27:53.719,413,2014-11-13 21:27:24.088,0
2014-11-13 21:28:09.280,3870,129,40.10425,-88.22172,231,-1,-1,10,165,1415935650,-0.8622437,1.258118,0.8521576,-23.74844,33.54208,16.71393,78.08199,81.16518,10,2.446949,6.733684,4.421894,-2.812041,-2.991955,-1.33673,3.508121,5.579149,4.039832,-0.9649197,0.8864758,1.213986,172.17.160.76,0.0.0.0,1,walking,0,2014-11-13 21:27:53.719,413,2014-11-13 21:27:24.088,0
2014-11-13 21:28:09.313,3871,129.0333,40.10425,-88.22172,231,-1,-1,10,165,1415935650,-0.3309784,1.239456,0.8078461,-19.85712,38.05346,8.634644,83.05656,86.13975,10,0.3661314,3.36226,3.172121,2.33276,2.459025,-1.386357,0.5056456,3.819303,3.395365,-0.507041,0.2193229,0.6373715,172.17.160.76,0.0.0.0,1,walking,0,2014-11-13 21:27:53.719,413,2014-11-13 21:27:24.088,0
2014-11-13 21:28:09.347,3872,129.0667,40.10425,-88.22172,231,-1,-1,10,165,1415935650,-0.4699402,1.079361,0.417572,-17.61874,40.01644,5.583984,85.88978,88.97297,10,0.2930236,2.662793,2.844959,2.079973,2.277877,-1.347889,0.3675222,3.032536,3.041451,-0.5073773,0.2314214,0.4606248,172.17.160.76,0.0.0.0,1,walking,0,2014-11-13 21:27:53.719,413,2014-11-13 21:27:24.088,0
2014-11-13 21:28:09.380,3873,129.1,40.10425,-88.22172,231,-1,-1,10,165,1415935650,-0.4998169,0.8945923,0.4255829,-12.3844,42.22047,1.561127,90.13776,93.22095,10,0.2001824,1.984389,2.350268,1.915394,2.170982,-1.307477,0.314965,2.402584,2.633905,-0.6847367,0.1138296,0.2705633,172.17.160.76,0.0.0.0,1,walking,0,2014-11-13 21:27:53.719,413,2014-11-13 21:27:24.088,0
2014-11-13 21:28:09.413,3874,129.1333,40.10425,-88.22172,231,-1,-1,10,165,1415935650,-0.5065002,0.7568665,0.4422607,-8.665264,43.73574,0.2201843,89.30763,92.39082,10,-0.0146125,0.7226307,1.140707,1.715665,2.057603,-1.230431,0.1268106,0.9864705,1.388403,-0.7996283,-0.1450101,0.2739615,172.17.160.76,0.0.0.0,1,walking,0,2014-11-13 21:27:53.719,413,2014-11-13 21:27:24.088,0
2014-11-13 21:28:09.447,3875,129.1667,40.10425,-88.22172,231,-1,-1,10,165,1415935650,-0.5367889,0.7396088,0.4316101,-7.253368,43.63245,-0.08154297,89.117,92.2002,10,-0.2294103,0.2960604,0.4981302,1.676547,2.040819,-1.203993,-0.0943584,0.4661545,0.7135113,-0.8298892,-0.1803964,0.2870053,172.17.160.76,0.0.0.0,1,walking,0,2014-11-13 21:27:53.719,413,2014-11-13 21:27:24.088,0
2014-11-13 21:28:09.480,3876,129.2,40.10425,-88.22172,231,-1,-1,10,165,1415935650,-0.5673676,0.7298431,0.4008789,-5.565983,44.01125,0.08605957,88.74452,91.82771,10,-0.561114,0.2391263,-0.1696612,1.678504,2.052512,-1.190397,-0.3349027,0.281662,0.1858839,-0.8658277,-0.1889077,0.2595908,172.17.160.76,0.0.0.0,1,walking,0,2014-11-13 21:27:53.719,413,2014-11-13 21:27:24.088,0
2014-11-13 21:28:09.512,3877,129.2333,40.10425,-88.22172,231,-1,-1,10,165,1415935650,-0.5357361,0.8972015,0.348114,-5.324924,44.25234,0.05255127,93.95808,97.04128,10,-0.7726129,0.5128087,-0.6673861,1.716201,2.096732,-1.186401,-0.5752729,0.3671421,-0.3307692,-0.8830197,-0.176766,0.1969657,172.17.160.76,0.0.0.0,1,walking,0,2014-11-13 21:27:53.719,413,2014-11-13 21:27:24.088,0
2014-11-13 21:28:09.547,3878,129.2667,40.10425,-88.22172,231,-1,-1,10,165,1415935650,-0.5281525,0.9449158,0.3421783,-5.324924,44.25234,0.05255127,93.95808,97.04128,10,-0.82696,0.7720073,-0.961971,1.789152,2.180956,-1.190712,-0.7431371,0.7006035,-0.7890679,-0.8397907,-0.03143172,0.1355321,172.17.160.76,0.0.0.0,1,walking,0,2014-11-13 21:27:53.719,413,2014-11-13 21:27:24.088,0
2014-11-13 21:28:09.579,3879,129.3,40.10425,-88.22172,231,-1,-1,10,165,1415935650,-0.4231873,1.100006,0.3583679,-7.356674,44.35564,1.69516,101.8217,104.9049,10,-0.8240989,1.634632,-1.690923,1.893343,2.307255,-1.201757,-0.769967,1.221644,-1.304227,-0.7620828,0.09154155,0.1046855,172.17.160.76,0.0.0.0,1,walking,0,2014-11-13 21:27:53.719,413,2014-11-13 21:27:24.088,0
2014-11-13 21:28:09.614,3880,129.3333,40.10425,-88.22172,231,-1,-1,10,165,1415935650,-0.3409882,1.192276,0.3866425,-8.803009,44.01127,2.231567,100.9858,104.069,10,-0.7216919,2.376437,-2.230879,2.098345,2.56987,-1.223609,-0.7040604,2.19472,-2.038129,-0.5807114,0.1922653,0.08504187,172.17.160.76,0.0.0.0,1,walking,0,2014-11-13 21:27:53.719,413,2014-11-13 21:27:24.088,0
2014-11-13 21:28:09.647,3881,129.3667,40.10425,-88.22172,231,-1,-1,10,165,1415935650,-0.2548218,1.32193,0.4083557,-12.31553,42.90925,2.566803,114.3086,117.3918,10,-0.4241601,3.220259,-2.757229,2.310994,2.84885,-1.23641,-0.5251472,2.906238,-2.503166,-0.4116033,0.2803486,0.07308643,172.17.160.76,0.0.0.0,1,walking,0,2014-11-13 21:27:53.719,413,2014-11-13 21:27:24.088,0
2014-11-13 21:28:09.680,3882,129.4,40.10425,-88.22172,231,-1,-1,10,165,1415935650,-0.2373352,1.405014,0.4260864,-17.06776,40.7741,1.896362,129.7756,132.8588,10,0.01354564,3.588436,-3.223982,2.736895,-2.863977,-1.223118,-0.05377499,3.629491,-3.084937,-0.1457276,0.4300729,0.09725644,172.17.160.76,0.0.0.0,1,walking,0,2014-11-13 21:27:53.719,413,2014-11-13 21:27:24.088,0
