time,timestamp,recordtime,lat,long,alt,speed,course,verticalAccuracy,horizontalAccuracy,locTimeStamp,accelerationX,accelerationY,accelerationZ,HeadingX,HeadingY,HeadingZ,TrueHeading,MagneticHeading,HeadingAccuracy,RotationX,RotationY,RotationZ,motionYaw,motionRoll,motionPitch,motionRotationRateX,motionRotationRateY,motionRotationRateZ,motionUserAccelerationX,motionUserAccelerationY,motionUserAccelerationZ,en0,pdp_ip0,DeviceOrientation,Activity,Activity Confidence,Activity Start,Steps,Last Step Date,State
2014-11-13 21:27:29.480,2676,89.2,40.10425,-88.22172,231,-1,-1,10,165,1415935612,-0.2783813,-0.6419067,0.6058502,-23.12849,-41.60183,11.75256,332.2761,335.3593,10,0.1428493,-0.0639393,-0.01573236,-2.324589,-2.625339,0.7524892,0.2042201,0.1525887,0.07088604,0.04691118,-0.001417526,0.01562875,172.17.160.76,0.0.0.0,1,walking,0,2014-11-13 21:27:24.021,413,2014-11-13 21:27:24.088,0
2014-11-13 21:27:29.513,2677,89.23334,40.10425,-88.22172,231,-1,-1,10,165,1415935612,-0.326828,-0.6578522,0.6328735,-22.92187,-41.3952,12.22189,332.071,335.1542,10,0.1792057,-0.1728221,-0.08013079,-2.318768,-2.629709,0.7451561,0.2342292,-0.1288802,-0.05384056,0.05816013,0.02954223,-0.02026046,172.17.160.76,0.0.0.0,1,walking,0,2014-11-13 21:27:24.021,413,2014-11-13 21:27:24.088,0
2014-11-13 21:27:29.547,2678,89.26667,40.10425,-88.22172,231,-1,-1,10,165,1415935612,-0.3475647,-0.6866455,0.664505,-22.88743,-41.01638,11.92017,331.8586,334.9418,10,0.1739864,0.0004324974,-0.07283,-2.314092,-2.634681,0.7415407,0.2407116,-0.04818987,-0.06193185,0.006047047,0.007532399,-0.003796217,172.17.160.76,0.0.0.0,1,walking,0,2014-11-13 21:27:24.021,413,2014-11-13 21:27:24.088,0
2014-11-13 21:27:29.580,2679,89.3,40.10425,-88.22172,231,-1,-1,10,165,1415935612,-0.3068695,-0.6634216,0.6739655,-22.88743,-40.672,12.65768,332.3944,335.4776,10,0.2156029,0.01095784,-0.08354523,-2.305138,-2.638392,0.7342945,0.2450801,0.09100825,-0.06121533,0.03058531,-0.01099719,0.01885334,172.17.160.76,0.0.0.0,1,walking,0,2014-11-13 21:27:24.021,413,2014-11-13 21:27:24.088,0
2014-11-13 21:27:29.613,2680,89.33334,40.10425,-88.22172,231,-1,-1,10,165,1415935612,-0.3147278,-0.6564331,0.677887,-23.16293,-40.94751,12.79181,332.3708,335.454,10,0.22621,-0.01339943,-0.07203691,-2.300079,-2.640136,0.7302817,0.2791986,0.07607457,-0.0667292,0.05124821,0.003657873,0.02069932,172.17.160.76,0.0.0.0,1,walking,0,2014-11-13 21:27:24.021,413,2014-11-13 21:27:24.088,0
2014-11-13 21:27:29.647,2681,89.36667,40.10425,-88.22172,231,-1,-1,10,165,1415935612,-0.3166656,-0.6811981,0.6941223,-23.33511,-40.98195,13.96512,332.3687,335.4519,10,0.1985219,0.0003802994,-0.07822956,-2.286922,-2.645972,0.7191802,0.2813557,0.06749215,-0.07739746,0.03083393,-0.006316692,0.03451597,172.17.160.76,0.0.0.0,1,walking,0,2014-11-13 21:27:24.021,413,2014-11-13 21:27:24.088,0
2014-11-13 21:27:29.680,2682,89.4,40.10425,-88.22172,231,-1,-1,10,165,1415935612,-0.2935028,-0.643631,0.6936951,-23.23181,-40.74088,14.19977,332.3406,335.4238,10,0.1238223,-0.1079837,-0.08064345,-2.280354,-2.648962,0.7136505,0.2076882,0.008182567,-0.0562044,0.05490872,-0.02118347,0.02632808,172.17.160.76,0.0.0.0,1,walking,0,2014-11-13 21:27:24.021,413,2014-11-13 21:27:24.088,0
2014-11-13 21:27:29.713,2683,89.43333,40.10425,-88.22172,231,-1,-1,10,165,1415935612,-0.3553009,-0.6542969,0.7083588,-22.853,-40.70644,14.43445,332.2746,335.3578,10,0.1100362,-0.1560655,-0.1169354,-2.274379,-2.654981,0.7099082,0.1746638,-0.1047087,-0.09276571,0.04567279,0.01705955,0.0304196,172.17.160.76,0.0.0.0,1,walking,0,2014-11-13 21:27:24.021,413,2014-11-13 21:27:24.088,0
2014-11-13 21:27:29.747,2684,89.46667,40.10425,-88.22172,231,-1,-1,10,165,1415935612,-0.3542328,-0.6204987,0.7104492,-22.78413,-40.70644,14.30032,324.0124,327.0956,10,0.01205746,-0.04980431,-0.1223778,-2.265026,-2.664592,0.7049442,0.08944725,0.00162001,-0.08763779,0.006102938,-0.02022158,0.02867742,172.17.160.76,0.0.0.0,1,walking,0,2014-11-13 21:27:24.021,413,2014-11-13 21:27:24.088,0
2014-11-13 21:27:29.780,2685,89.50001,40.10425,-88.22172,231,-1,-1,10,165,1415935612,-0.3178101,-0.6664124,0.6977539,-23.36954,-40.87863,14.73615,223.276,226.3592,10,-0.0188416,-0.07857497,-0.1351514,-2.25893,-2.669207,0.7006417,0.06822905,-0.007139892,-0.1226239,0.009659033,0.01390999,0.02164963,172.17.160.76,0.0.0.0,1,walking,0,2014-11-13 21:27:24.021,413,2014-11-13 21:27:24.088,0
2014-11-13 21:27:29.813,2686,89.53334,40.10425,-88.22172,231,-1,-1,10,165,1415935612,-0.3114471,-0.681488,0.6911621,-23.47285,-40.91307,14.43445,219.8962,222.9794,10,-0.06588181,-0.08992856,-0.09363728,-2.250869,-2.676785,0.7031999,0.02446177,-0.0304049,-0.109853,0.01789505,-0.01094621,-0.004834916,172.17.160.76,0.0.0.0,1,walking,0,2014-11-13 21:27:24.021,413,2014-11-13 21:27:24.088,0
2014-11-13 21:27:29.847,2687,89.56667,40.10425,-88.22172,231,-1,-1,10,165,1415935612,-0.3493195,-0.63974,0.6782684,-22.9563,-40.80976,14.40094,218.5428,221.626,10,-0.1394402,-0.1324757,-0.1042007,-2.249147,-2.678411,0.7040924,-0.03534349,-0.02585328,-0.07351474,0.02910103,-0.03414569,0.009271486,172.17.160.76,0.0.0.0,1,walking,0,2014-11-13 21:27:24.021,413,2014-11-13 21:27:24.088,0
2014-11-13 21:27:29.880,2688,89.60001,40.10425,-88.22172,231,-1,-1,10,165,1415935612,-0.3707275,-0.6441803,0.6759949,-21.99208,-41.08527,14.33386,216.7038,219.787,10,-0.1500705,-0.03247405,-0.08877355,-2.246243,-2.682831,0.7102762,-0.09393286,-0.02274913,-0.0881465,-0.02665948,0.004506022,0.005729497,172.17.160.76,0.0.0.0,1,walking,0,2014-11-13 21:27:24.021,413,2014-11-13 21:27:24.088,0
2014-11-13 21:27:29.912,2689,89.63334,40.10425,-88.22172,231,-1,-1,10,165,1415935612,-0.3370209,-0.6528473,0.660614,-21.64771,-41.01639,14.26682,216.6653,219.7484,10,-0.1437851,0.01144893,-0.0407991,-2.247293,-2.679494,0.7124104,-0.07695922,0.06475684,-0.03785251,-0.01515688,-0.003261573,0.002622913,172.17.160.76,0.0.0.0,1,walking,0,2014-11-13 21:27:24.021,413,2014-11-13 21:27:24.088,0
2014-11-13 21:27:29.947,2690,89.66667,40.10425,-88.22172,231,-1,-1,10,165,1415935612,-0.3744507,-0.6463776,0.6816406,-21.71658,-41.15414,14.60208,216.622,219.7052,10,-0.1918674,-0.02338522,-0.01320395,-2.248119,-2.676369,0.7170064,-0.1143516,0.045808,-0.01658591,-0.02153416,0.01607891,-0.005162979,172.17.160.76,0.0.0.0,1,walking,0,2014-11-13 21:27:24.021,413,2014-11-13 21:27:24.088,0
2014-11-13 21:27:29.979,2691,89.7,40.10425,-88.22172,231,-1,-1,10,165,1415935612,-0.3837433,-0.6470642,0.6792297,-21.99208,-40.94752,14.13275,216.6545,219.7377,10,-0.1694394,0.02653787,-0.01408652,-2.252573,-2.670436,0.7188246,-0.1357541,0.08009752,0.01977282,-0.04112723,0.01393873,0.01331679,172.17.160.76,0.0.0.0,1,walking,0,2014-11-13 21:27:24.021,413,2014-11-13 21:27:24.088,0
2014-11-13 21:27:30.013,2692,89.73334,40.10425,-88.22172,231,-1,-1,10,165,1415935612,-0.3412476,-0.64534,0.6802979,-22.50863,-41.05084,14.0322,216.7274,219.8105,10,-0.134316,0.03624349,0.007062703,-2.255687,-2.665121,0.7188381,-0.09092923,0.08421814,0.004774212,-0.03857862,0.01144651,0.01048092,172.17.160.76,0.0.0.0,1,walking,0,2014-11-13 21:27:24.021,413,2014-11-13 21:27:24.088,0
2014-11-13 21:27:30.046,2693,89.76667,40.10425,-88.22172,231,-1,-1,10,165,1415935612,-0.3614044,-0.6507111,0.6871643,-22.88744,-40.94752,13.99866,228.4002,231.4834,10,-0.06721712,-0.07328593,-0.0001342233,-2.259137,-2.659271,0.7161824,-0.007869449,0.004573604,0.0167927,-0.01680323,0.03746065,-0.002676883,172.17.160.76,0.0.0.0,1,walking,0,2014-11-13 21:27:24.021,413,2014-11-13 21:27:24.088,0
2014-11-13 21:27:30.079,2694,89.8,40.10425,-88.22172,231,-1,-1,10,165,1415935612,-0.3442078,-0.6420593,0.673645,-23.09406,-40.94752,13.79749,307.8621,310.9453,10,-0.05117184,-0.06917135,-0.01715635,-2.260092,-2.658117,0.7129055,0.009207293,0.02155762,0.01576541,-0.002659068,0.003414918,0.02078968,172.17.160.76,0.0.0.0,1,walking,0,2014-11-13 21:27:24.021,413,2014-11-13 21:27:24.088,0
2014-11-13 21:27:30.113,2695,89.83334,40.10425,-88.22172,231,-1,-1,10,165,1415935612,-0.3238678,-0.6195679,0.6583862,-22.853,-40.77533,13.83099,329.5359,332.6191,10,-0.101419,-0.1305375,0.01455311,-2.258984,-2.661274,0.7116232,-0.02818457,-0.0602019,0.02184423,0.01390703,0.01140127,-0.002071831,172.17.160.76,0.0.0.0,1,walking,0,2014-11-13 21:27:24.021,413,2014-11-13 21:27:24.088,0
2014-11-13 21:27:30.146,2696,89.86667,40.10425,-88.22172,231,-1,-1,10,165,1415935612,-0.3029785,-0.628891,0.6350098,-22.92188,-41.11971,13.36166,332.9497,336.0329,10,-0.08639188,-0.1733846,-0.03031103,-2.258967,-2.663694,0.7113591,-0.03887259,-0.08035854,0.02602347,0.02450587,0.03329602,-0.01422401,172.17.160.76,0.0.0.0,1,walking,0,2014-11-13 21:27:24.021,413,2014-11-13 21:27:24.088,0
2014-11-13 21:27:30.180,2697,89.9,40.10425,-88.22172,231,-1,-1,10,165,1415935612,-0.2788391,-0.6391296,0.6264343,-22.30202,-41.32634,13.56281,332.1669,335.2501,10,-0.1385635,-0.354504,-0.09794281,-2.257678,-2.67048,0.7137821,-0.02912075,-0.187226,-0.05419231,0.05383645,0.01997741,-0.04470225,172.17.160.76,0.0.0.0,1,walking,0,2014-11-13 21:27:24.021,413,2014-11-13 21:27:24.088,0
2014-11-13 21:27:30.213,2698,89.93333,40.10425,-88.22172,231,-1,-1,10,165,1415935612,-0.2711792,-0.6377716,0.6262207,-22.12983,-41.36077,13.79745,332.3617,335.4449,10,-0.2481898,-0.3772511,-0.1624025,-2.256216,-2.679504,0.7167124,-0.1154379,-0.3118272,-0.09698461,0.05729441,0.01777978,-0.04846142,172.17.160.76,0.0.0.0,1,walking,0,2014-11-13 21:27:24.021,413,2014-11-13 21:27:24.088,0
2014-11-13 21:27:30.247,2699,89.96667,40.10425,-88.22172,231,-1,-1,10,165,1415935612,-0.2192841,-0.6756287,0.6135254,-21.61328,-41.25746,13.76392,334.3353,337.4185,10,-0.4183126,-0.3910596,-0.3136301,-2.253115,-2.693791,0.7267594,-0.2791313,-0.2927005,-0.2438323,0.08925404,0.0007397803,-0.06073049,172.17.160.76,0.0.0.0,1,walking,0,2014-11-13 21:27:24.021,413,2014-11-13 21:27:24.088,0
2014-11-13 21:27:30.280,2700,90.00001,40.10425,-88.22172,231,-1,-1,10,165,1415935612,-0.2675934,-0.6785583,0.5885468,-21.57886,-41.15414,13.93152,336.2791,339.3623,10,-0.6686641,-0.5478639,-0.4101132,-2.248311,-2.708204,0.7422192,-0.5080581,-0.4519047,-0.3754373,0.09196069,0.006644063,-0.08230315,172.17.160.76,0.0.0.0,1,walking,0,2014-11-13 21:27:24.021,413,2014-11-13 21:27:24.088,0
2014-11-13 21:27:30.313,2701,90.03334,40.10425,-88.22172,231,-1,-1,10,165,1415935612,-0.2871552,-0.7374725,0.6165924,-20.959,-41.98065,13.66333,336.7585,339.8416,10,-0.6966033,-0.5744465,-0.6967487,-2.240495,-2.729401,0.7647659,-0.6193495,-0.5769565,-0.6208815,-0.03170652,0.02255305,-0.07982802,172.17.160.76,0.0.0.0,1,walking,0,2014-11-13 21:27:24.021,413,2014-11-13 21:27:24.088,0
2014-11-13 21:27:30.347,2702,90.06667,40.10425,-88.22172,231,-1,-1,10,165,1415935612,-0.1630402,-0.8046417,0.6287842,-19.92591,-43.0138,13.46219,340.8134,343.8965,10,-0.8300421,-0.5297502,-0.9783679,-2.21534,-2.763571,0.8010543,-0.7313613,-0.3611365,-0.8942496,0.0548671,-0.04829771,-0.01447413,172.17.160.76,0.0.0.0,1,walking,0,2014-11-13 21:27:24.021,413,2014-11-13 21:27:24.088,0
2014-11-13 21:27:30.380,2703,90.10001,40.10425,-88.22172,231,-1,-1,10,165,1415935612,-0.2484589,-0.9224396,0.7016144,-18.51401,-43.94363,12.42294,350.1728,353.256,10,-0.9112371,-1.033894,-1.048653,-2.186463,-2.803141,0.8337632,-0.81979,-0.8413648,-1.034441,0.04186345,-0.1026128,-0.01441354,172.17.160.76,0.0.0.0,1,walking,0,2014-11-13 21:27:24.021,413,2014-11-13 21:27:24.088,0
2014-11-13 21:27:30.414,2704,90.13334,40.10425,-88.22172,231,-1,-1,10,165,1415935612,-0.1926575,-1.036194,0.7851562,-17.61866,-43.87475,11.68542,354.4589,357.5421,10,-0.8631459,-1.04273,-1.090278,-2.152919,-2.858079,0.867434,-0.8326102,-0.9967222,-1.064932,-0.0810674,-0.1864096,0.1368323,172.17.160.76,0.0.0.0,1,walking,0,2014-11-13 21:27:24.021,413,2014-11-13 21:27:24.088,0
2014-11-13 21:27:30.447,2705,90.16667,40.10425,-88.22172,231,-1,-1,10,165,1415935612,0.007644653,-1.306046,0.9135132,-14.96705,-44.80457,10.64618,355.67,358.7532,10,-0.6626866,-1.386259,-0.8380819,-2.105717,-2.935734,0.907739,-0.8131569,-1.151225,-0.8386617,0.117488,-0.3907189,0.2908236,172.17.160.76,0.0.0.0,1,walking,0,2014-11-13 21:27:24.021,413,2014-11-13 21:27:24.088,0
2014-11-13 21:27:30.480,2706,90.2,40.10425,-88.22172,231,-1,-1,10,165,1415935612,0.06390381,-1.811615,1.079758,-12.41876,-45.56221,10.17685,8.470408,11.5536,10,-0.3796347,-1.223279,-0.6249257,-2.071604,-3.001856,0.9306861,-0.4947703,-1.322935,-0.7622086,0.08752462,-0.6233699,0.3441764,172.17.160.76,0.0.0.0,1,walking,0,2014-11-13 21:27:24.021,413,2014-11-13 21:27:24.088,0
2014-11-13 21:27:30.513,2707,90.23334,40.10425,-88.22172,231,-1,-1,10,165,1415935612,0.3473358,-2.199448,1.15451,-11.5234,-46.11322,10.57913,7.164744,10.24794,10,-0.2634375,-0.7469171,-0.1494313,-2.042564,-3.060327,0.9432067,-0.2683,-0.9595836,-0.4713588,0.1115701,-1.00217,0.4945002,172.17.160.76,0.0.0.0,1,walking,0,2014-11-13 21:27:24.021,413,2014-11-13 21:27:24.088,0
2014-11-13 21:27:30.547,2708,90.26667,40.10425,-88.22172,231,-1,-1,10,165,1415935612,0.7187195,-2.741119,1.220474,-10.97242,-46.31985,11.71899,21.60099,24.68419,10,-0.442383,-1.585566,1.354127,-2.044341,-3.089058,0.9505822,-0.1072842,-0.8751215,0.5963338,0.652437,-1.737699,0.6199251,172.17.160.76,0.0.0.0,1,walking,0,2014-11-13 21:27:24.021,413,2014-11-13 21:27:24.088,0
2014-11-13 21:27:30.580,2709,90.3,40.10425,-88.22172,231,-1,-1,10,165,1415935612,0.8100739,-3.450638,1.57486,-11.11016,-46.38872,12.79175,24.89151,27.9747,10,-0.4885486,-1.698108,1.786792,-2.081858,-3.083734,0.9541669,-0.3787615,-1.520514,1.370956,0.8297203,-2.1486,0.7129775,172.17.160.76,0.0.0.0,1,walking,0,2014-11-13 21:27:24.021,413,2014-11-13 21:27:24.088,0
2014-11-13 21:27:30.614,2710,90.33334,40.10425,-88.22172,231,-1,-1,10,165,1415935612,-0.2073975,-3.25267,1.322861,-13.52072,-46.04434,15.60776,32.92058,36.00377,10,-0.7624215,-2.587156,3.647098,-2.273115,-3.015274,0.9641987,-0.5611133,-2.251648,3.3241,0.5681272,-3.149553,0.9775576,172.17.160.76,0.0.0.0,1,walking,0,2014-11-13 21:27:24.021,413,2014-11-13 21:27:24.088,0
2014-11-13 21:27:30.647,2711,90.36667,40.10425,-88.22172,231,-1,-1,10,165,1415935612,-3.663986,-0.2428131,2.564926,-17.79084,-44.94232,15.00424,35.62044,38.70363,10,-2.202718,-0.3038246,4.24833,-2.482763,-2.912536,0.9689568,-1.208616,-1.465704,4.36667,-1.354374,-1.313201,1.115086,172.17.160.76,0.0.0.0,1,walking,0,2014-11-13 21:27:24.021,413,2014-11-13 21:27:24.088,0
2014-11-13 21:27:30.680,2712,90.4,40.10425,-88.22172,231,-1,-1,10,165,1415935612,-6.63887,0.3866272,2.669571,-21.85434,-43.42705,8.835876,24.63481,27.718,10,-4.667778,6.002167,-1.452911,-2.697106,-2.687148,1.026187,-4.494857,4.52105,0.8110161,-5.34895,1.681654,2.689208,172.17.160.76,0.0.0.0,1,walking,0,2014-11-13 21:27:24.021,413,2014-11-13 21:27:24.088,0
2014-11-13 21:27:30.713,2713,90.43333,40.10425,-88.22172,231,-1,-1,10,165,1415935612,5.677887,7.211563,0.9656982,-22.19871,-42.46278,2.265228,14.9408,18.02399,10,3.549083,11.99905,2.282193,-2.848494,-2.266185,1.158521,-6.102218,16.40315,0.9263109,-3.27082,0.2295048,2.228923,172.17.160.76,0.0.0.0,1,walking,0,2014-11-13 21:27:24.021,413,2014-11-13 21:27:24.088,0
2014-11-13 21:27:30.746,2714,90.46667,40.10425,-88.22172,231,-1,-1,10,165,1415935612,-1.967072,0.4239655,0.7649689,-20.3047,-41.53295,-7.758331,347.0986,350.1818,10,-0.1005484,-13.42374,-8.252215,-2.855345,-2.004098,1.200296,1.436167,-12.17667,-6.812293,3.031241,0.1182119,-1.97852,172.17.160.76,0.0.0.0,1,walking,0,2014-11-13 21:27:24.021,413,2014-11-13 21:27:24.088,0
2014-11-13 21:27:30.780,2715,90.50001,40.10425,-88.22172,231,-1,-1,10,165,1415935650,-0.64534,1.026306,-0.467041,-13.69289,-42.8416,-11.71414,357.7027,0.7858887,10,-0.698479,-0.5634136,-5.0201,-2.173398,-3.041255,1.333728,-0.4459182,-8.680527,-7.875915,-2.105076,3.168152,0.9554906,172.17.160.76,0.0.0.0,1,walking,0,2014-11-13 21:27:24.021,413,2014-11-13 21:27:24.088,0
2014-11-13 21:27:30.813,2716,90.53334,40.10425,-88.22172,231,-1,-1,10,165,1415935650,0.5557098,2.358383,-0.353653,-9.870434,-43.90918,-10.80899,22.28235,25.36555,10,-2.419662,4.364729,-4.281817,-1.68308,2.700487,1.317464,-0.6348604,-0.4983641,-5.003271,-1.482829,2.322086,0.1785558,172.17.160.76,0.0.0.0,1,walking,0,2014-11-13 21:27:24.021,413,2014-11-13 21:27:24.088,0
2014-11-13 21:27:30.846,2717,90.56667,40.10425,-88.22172,231,-1,-1,10,165,1415935650,1.690674,1.963806,-0.7181396,-0.8825188,-44.97676,-9.970978,36.81484,39.89803,10,-0.5119157,4.775456,-2.9557,-0.9330038,2.217512,1.256351,-1.274397,6.199626,-2.976388,1.186638,3.182505,-0.8973052,172.17.160.76,0.0.0.0,1,walking,0,2014-11-13 21:27:24.021,413,2014-11-13 21:27:24.088,0
2014-11-13 21:27:30.880,2718,90.60001,40.10425,-88.22172,231,-1,-1,10,165,1415935650,2.195923,0.9953918,-0.715271,7.313362,-44.288,-10.84256,29.02157,32.10476,10,0.1974489,3.268691,-2.071461,-0.7396547,2.185809,1.196334,-0.1064663,4.150881,-2.638076,1.883684,2.521876,-0.9075874,172.17.160.76,0.0.0.0,1,walking,0,2014-11-13 21:27:24.021,413,2014-11-13 21:27:24.088,0
2014-11-13 21:27:30.913,2719,90.63334,40.10425,-88.22172,231,-1,-1,10,165,1415935650,1.612534,0.3082886,-0.624054,10.06828,-44.08137,-10.57443,26.50921,29.5924,10,1.142031,2.650645,-0.1283108,-0.6999986,2.238571,1.14852,0.9591389,2.554613,-0.7758952,1.794283,1.59241,-0.9398541,172.17.160.76,0.0.0.0,1,walking,0,2014-11-13 21:27:24.021,413,2014-11-13 21:27:24.088,0
2014-11-13 21:27:30.947,2720,90.66667,40.10425,-88.22172,231,-1,-1,10,165,1415935650,1.123779,0.4577332,-0.14505,13.6841,-43.84031,-8.127106,21.45436,24.53755,10,2.429233,3.410575,0.9673818,-0.8321189,2.479176,1.117667,2.077037,3.403558,0.9832647,0.9864452,1.180942,-0.6793922,172.17.160.76,0.0.0.0,1,walking,0,2014-11-13 21:27:24.021,413,2014-11-13 21:27:24.088,0
2014-11-13 21:27:30.980,2721,90.7,40.10425,-88.22172,231,-1,-1,10,165,1415935650,1.031433,0.6991119,-0.2377014,13.85629,-43.94363,-6.082184,21.1547,24.23789,10,3.207386,3.155401,1.277323,-0.9320173,2.637632,1.085476,2.876419,3.444024,1.045235,0.8985116,1.342259,-0.5535457,172.17.160.76,0.0.0.0,1,walking,0,2014-11-13 21:27:24.021,413,2014-11-13 21:27:24.088,0
2014-11-13 21:27:31.013,2722,90.73334,40.10425,-88.22172,231,-1,-1,10,165,1415935650,-0.1500244,1.179489,0.02386475,12.23778,-44.52907,-0.9530029,6.841118,9.924309,10,5.03102,1.43618,3.086128,-1.224481,3.000477,0.9247265,4.733007,1.241694,2.762208,0.4640132,1.831278,-0.8015432,172.17.160.76,0.0.0.0,1,walking,0,2014-11-13 21:27:24.021,413,2014-11-13 21:27:24.088,0
2014-11-13 21:27:31.046,2723,90.76667,40.10425,-88.22172,231,-1,-1,10,165,1415935650,-1.462311,0.9203186,0.5988007,7.898785,-44.4602,7.159698,355.9302,359.0134,10,5.580463,2.102371,4.52801,-1.32987,3.10829,0.830954,5.094636,1.501227,3.102956,-0.172472,1.918064,-0.6499329,172.17.160.76,0.0.0.0,1,walking,0,2014-11-13 21:27:24.021,413,2014-11-13 21:27:24.088,0
2014-11-13 21:27:31.080,2724,90.8,40.10425,-88.22172,231,-1,-1,10,165,1415935650,-2.736588,1.564362,1.924423,-0.7792091,-41.70515,16.7475,195.883,198.9662,10,6.11558,3.024196,8.310798,-1.566419,-2.940173,0.5853822,6.099071,2.067149,7.063626,-1.66322,1.432965,0.02795401,172.17.160.76,0.0.0.0,1,walking,0,2014-11-13 21:27:24.021,413,2014-11-13 21:27:24.088,0
2014-11-13 21:27:31.113,2725,90.83334,40.10425,-88.22172,231,-1,-1,10,165,1415935650,-2.607208,1.182144,1.633469,-7.046646,-38.60572,21.44086,182.0003,185.0835,10,4.676574,4.000161,7.444542,-1.767702,-2.761561,0.3397349,5.904387,3.732333,8.060302,-2.38684,1.897599,1.048849,172.17.160.76,0.0.0.0,1,walking,0,2014-11-13 21:27:24.021,413,2014-11-13 21:27:24.088,0
2014-11-13 21:27:31.147,2726,90.86667,40.10425,-88.22172,231,-1,-1,10,165,1415935650,-2.24324,1.760513,1.436462,-14.07169,-34.67978,24.99435,186.9483,190.0315,10,4.114003,4.230155,7.755689,-1.865081,-2.65735,0.181271,4.740188,4.065207,7.46137,-2.415151,1.405667,1.02669,172.17.160.76,0.0.0.0,1,walking,0,2014-11-13 21:27:24.021,413,2014-11-13 21:27:24.088,0
2014-11-13 21:27:31.180,2727,90.9,40.10425,-88.22172,231,-1,-1,10,165,1415935650,-1.67955,2.035446,1.3134,-33.76935,-15.18781,27.74338,204.1501,207.2333,10,3.302639,3.763972,9.436598,-2.144148,-2.417044,-0.3188767,3.813468,4.019087,9.323252,-1.075831,1.770179,0.6602569,172.17.160.76,0.0.0.0,1,walking,0,2014-11-13 21:27:24.021,413,2014-11-13 21:27:24.088,0
