time,timestamp,recordtime,lat,long,alt,speed,course,verticalAccuracy,horizontalAccuracy,locTimeStamp,accelerationX,accelerationY,accelerationZ,HeadingX,HeadingY,HeadingZ,TrueHeading,MagneticHeading,HeadingAccuracy,RotationX,RotationY,RotationZ,motionYaw,motionRoll,motionPitch,motionRotationRateX,motionRotationRateY,motionRotationRateZ,motionUserAccelerationX,motionUserAccelerationY,motionUserAccelerationZ,en0,pdp_ip0,DeviceOrientation,Activity,Activity Confidence,Activity Start,Steps,Last Step Date,State
2014-11-15 17:58:20.150,12291,409.7,40.10477,-88.22192,234.8329,0,249.9609,6,10,1416095900,0.1281128,0.9716339,0.06834412,31.82216,31.18385,-3.581573,241.9301,245.0124,10,0.08564779,-0.07121293,-0.1386884,2.376314,2.402333,-1.381091,0.09130896,-0.1116295,-0.1033146,0.08128116,0.08585704,-0.06738635,172.17.160.76,10.64.29.0,2,unknown,2,2014-11-15 17:58:19.372,8,2014-11-15 17:52:35.410,3
2014-11-15 17:58:20.185,12292,409.7334,40.10477,-88.22192,234.8329,0,249.9609,6,10,1416095900,0.09928894,0.958786,0.05517578,32.02811,30.90852,-3.245514,242.5034,245.5857,10,0.2070432,0.199474,-0.02520043,2.332501,2.362614,-1.388878,0.2523829,0.2457782,-0.04151474,-0.02285582,-0.01711347,-0.0581133,172.17.160.76,10.64.29.0,2,unknown,2,2014-11-15 17:58:19.372,8,2014-11-15 17:52:35.410,3
2014-11-15 17:58:20.218,12293,409.7667,40.10477,-88.22192,234.8329,0,249.9609,6,10,1416095900,0.1716614,1.052277,0.1139374,31.71918,30.80527,-3.211823,242.8626,245.9449,10,0.295377,0.1753175,0.01786235,2.302394,2.337907,-1.396304,0.2906007,0.2493822,0.01673843,-0.0256947,-0.02602884,-0.0653182,172.17.160.76,10.64.29.0,2,unknown,2,2014-11-15 17:58:19.372,8,2014-11-15 17:52:35.410,3
2014-11-15 17:58:20.251,12294,409.8,40.10477,-88.22192,234.8329,0,249.9609,6,10,1416095900,0.1158142,0.9256439,0.1280365,32.09677,30.4267,-3.245514,244.2936,247.3759,10,0.381693,0.02631842,-0.008721054,2.241368,2.28383,-1.402821,0.4397914,0.1451249,0.009267244,0.04520448,0.06635138,0.00457524,172.17.160.76,10.64.29.0,2,unknown,2,2014-11-15 17:58:19.372,8,2014-11-15 17:52:35.410,3
2014-11-15 17:58:20.284,12295,409.8333,40.10477,-88.22192,234.8329,0,249.9609,6,10,1416095900,0.1046753,0.9364166,0.1328888,32.09677,30.6332,-3.447174,244.3976,247.4799,10,0.26527,0.105712,0.08554339,2.16335,2.212527,-1.411182,0.3617975,0.177514,0.07235617,-0.01771504,-0.075225,0.0351879,172.17.160.76,10.64.29.0,2,unknown,2,2014-11-15 17:58:19.372,8,2014-11-15 17:52:35.410,3
2014-11-15 17:58:20.318,12296,409.8667,40.10477,-88.22192,234.8329,0,249.9609,6,10,1416095900,0.1106567,0.9785614,0.1442261,31.6162,30.35787,-3.984955,244.2188,247.3011,10,0.1723148,-0.06405808,0.1115345,2.100861,2.156734,-1.413021,0.2751601,0.06433189,0.1347079,-0.01964529,-0.00500487,0.05047458,172.17.160.76,10.64.29.0,2,unknown,2,2014-11-15 17:58:19.372,8,2014-11-15 17:52:35.410,3
2014-11-15 17:58:20.351,12297,409.9,40.10477,-88.22192,234.8329,0,249.9609,6,10,1416095900,0.1200714,0.9764404,0.1795654,31.58188,30.11694,-4.690887,243.42,246.5023,10,0.05914987,-0.2967432,0.106487,2.067495,2.123389,-1.413377,0.2036609,-0.07917175,0.1225436,-0.02278065,-0.009073738,0.06193821,172.17.160.76,10.64.29.0,2,unknown,2,2014-11-15 17:58:19.372,8,2014-11-15 17:52:35.410,3
2014-11-15 17:58:20.384,12298,409.9333,40.10477,-88.22192,234.8329,0,249.9609,6,10,1416095900,0.1029205,0.9818573,0.1526337,31.27294,29.87604,-4.791718,243.177,246.2593,10,-0.1059382,-0.4056292,0.02904364,2.057478,2.104955,-1.410818,0.03194313,-0.3131353,0.08479569,-0.01891134,-0.009630721,0.08227544,172.17.160.76,10.64.29.0,2,unknown,2,2014-11-15 17:58:19.372,8,2014-11-15 17:52:35.410,3
2014-11-15 17:58:20.418,12299,409.9667,40.10477,-88.22192,234.8329,0,249.9609,6,10,1416095900,0.1120453,0.9902954,0.1569977,31.68485,29.87604,-4.993439,242.714,245.7963,10,-0.1699619,-0.5065843,0.02344434,2.082777,2.120294,-1.408558,-0.06711904,-0.3761366,0.03706075,-0.0348279,-0.00501093,0.06827451,172.17.160.76,10.64.29.0,2,unknown,2,2014-11-15 17:58:19.372,8,2014-11-15 17:52:35.410,3
2014-11-15 17:58:20.451,12300,410,40.10477,-88.22192,234.8329,0,249.9609,6,10,1416095900,0.09075928,0.9714661,0.09085083,31.6162,30.42669,-4.993439,242.1759,245.2582,10,-0.2401215,-0.4570144,-0.03016749,2.118055,2.142718,-1.404997,-0.1332153,-0.4676927,0.009222552,-0.02673101,0.004008604,0.06766976,172.17.160.76,10.64.29.0,2,unknown,2,2014-11-15 17:58:19.372,8,2014-11-15 17:52:35.410,3
2014-11-15 17:58:20.484,12301,410.0334,40.10477,-88.22192,234.8329,0,249.9609,6,10,1416095900,0.1652222,0.9506073,0.03598022,31.71918,30.04811,-5.430328,241.2955,244.3778,10,-0.2506911,-0.2932886,-0.01865092,2.161482,2.17073,-1.403333,-0.1863184,-0.2818631,-0.009776545,-0.03781288,-0.008242754,-0.01669883,172.17.160.76,10.64.29.0,2,unknown,2,2014-11-15 17:58:19.372,8,2014-11-15 17:52:35.410,3
2014-11-15 17:58:20.518,12302,410.0667,40.10477,-88.22192,234.8329,0,249.9609,6,10,1416095900,0.1742706,0.9539795,0.02548218,31.85648,30.18578,-6.16983,239.8013,242.8836,10,-0.2294257,-0.1121777,0.0459121,2.179291,2.184108,-1.401186,-0.180982,-0.162647,0.01842973,0.01653713,-0.02587273,-0.04356804,172.17.160.76,10.64.29.0,2,unknown,2,2014-11-15 17:58:19.372,8,2014-11-15 17:52:35.410,3
2014-11-15 17:58:20.550,12303,410.1,40.10477,-88.22192,234.8329,0,249.9609,6,10,1416095900,0.1229706,1.013748,0.1233063,31.85648,29.56628,-6.707611,238.6288,241.7112,10,-0.1518308,-0.1595542,0.109061,2.188012,2.189107,-1.393908,-0.1363925,-0.08770148,0.0982791,0.01200701,-0.007101088,-0.04752727,172.17.160.76,10.64.29.0,2,unknown,2,2014-11-15 17:58:19.372,8,2014-11-15 17:52:35.410,3
2014-11-15 17:58:20.584,12304,410.1334,40.10477,-88.22192,234.8329,0,249.9609,6,10,1416095900,0.1247101,0.986969,0.1015625,31.92513,30.18577,-6.707611,238.1589,241.2412,10,-0.06759023,-0.07980535,0.1219033,2.18279,2.181479,-1.389516,-0.02351728,-0.06508426,0.1457421,-0.02856203,0.01228163,0.002879837,172.17.160.76,10.64.29.0,2,unknown,2,2014-11-15 17:58:19.372,8,2014-11-15 17:52:35.410,3
2014-11-15 17:58:20.618,12305,410.1667,40.10477,-88.22192,234.8329,0,249.9609,6,10,1416095900,0.1070099,0.9766998,0.03396606,31.95947,30.49551,-6.472321,237.9636,241.0459,10,0.02854483,0.1506912,0.1174497,2.169479,2.169516,-1.388292,0.02786992,0.1153395,0.1210187,-0.03061496,0.002325463,-0.01966016,172.17.160.76,10.64.29.0,2,unknown,2,2014-11-15 17:58:19.372,8,2014-11-15 17:52:35.410,3
2014-11-15 17:58:20.650,12306,410.2,40.10477,-88.22192,234.8329,0,249.9609,6,10,1416095900,0.1679688,0.9715118,0.02159119,31.99379,30.66759,-6.505951,237.7373,240.8196,10,0.1107595,0.3078912,0.1147852,2.121329,2.130808,-1.389383,0.1696939,0.3047045,0.1607546,-0.03524613,-0.006401494,-0.07548341,172.17.160.76,10.64.29.0,2,unknown,2,2014-11-15 17:58:19.372,8,2014-11-15 17:52:35.410,3
2014-11-15 17:58:20.684,12307,410.2334,40.10477,-88.22192,234.8329,0,249.9609,6,10,1416095900,0.2104645,1.022644,0.1011353,32.30272,30.42668,-6.405121,238.0611,241.1434,10,0.1513227,0.284318,0.09115654,2.095725,2.112733,-1.388764,0.1762355,0.3746011,0.1303151,0.01287952,-0.01196599,-0.07178273,172.17.160.76,10.64.29.0,2,unknown,2,2014-11-15 17:58:19.372,8,2014-11-15 17:52:35.410,3
2014-11-15 17:58:20.718,12308,410.2667,40.10477,-88.22192,234.8329,0,249.9609,6,10,1416095900,0.1365662,1.015335,0.09371948,32.44003,30.01369,-6.539581,238.3889,241.4712,10,0.293181,0.311747,0.07378607,2.04767,2.075813,-1.387889,0.2615527,0.3287063,0.1085314,0.05128114,0.03932501,0.01313333,172.17.160.76,10.64.29.0,2,unknown,2,2014-11-15 17:58:19.372,8,2014-11-15 17:52:35.410,3
2014-11-15 17:58:20.751,12309,410.3,40.10477,-88.22192,234.8329,0,249.9609,6,10,1416095900,0.1947937,1.001007,0.08804321,32.85194,29.73837,-6.674042,238.6823,241.7646,10,0.2914532,0.576887,0.007253918,1.972541,2.018607,-1.391929,0.4271112,0.5439322,0.0559677,-0.02380621,0.03128928,0.01668333,172.17.160.76,10.64.29.0,2,unknown,2,2014-11-15 17:58:19.372,8,2014-11-15 17:52:35.410,3
2014-11-15 17:58:20.784,12310,410.3333,40.10477,-88.22192,234.8329,0,249.9609,6,10,1416095900,0.2050629,1.03894,0.1920166,32.74896,29.49746,-6.506012,239.3363,242.4187,10,0.291267,0.3420761,0.009202553,1.911407,1.976964,-1.395958,0.312185,0.6073457,0.003657764,-0.00337875,-0.01505866,-0.0310975,172.17.160.76,10.64.29.0,2,unknown,2,2014-11-15 17:58:19.372,8,2014-11-15 17:52:35.410,3
2014-11-15 17:58:20.818,12311,410.3667,40.10477,-88.22192,234.8329,0,249.9609,6,10,1416095900,0.1405029,0.9949036,0.1256409,32.78329,28.77471,-6.27066,240.6706,243.7529,10,0.2819736,0.3722013,-0.08295294,1.806877,1.894654,-1.402291,0.4059444,0.3955769,-0.03283755,0.02005623,0.04184286,0.1229308,172.17.160.76,10.64.29.0,2,unknown,2,2014-11-15 17:58:19.372,8,2014-11-15 17:52:35.410,3
2014-11-15 17:58:20.851,12312,410.4,40.10477,-88.22192,234.8329,0,249.9609,6,10,1416095900,0.1315308,0.9792023,0.1464081,32.92059,28.49938,-5.531158,242.6629,245.7452,10,0.1260408,0.1643367,-0.03994289,1.760077,1.861097,-1.407044,0.2109454,0.3635083,-0.0704897,-0.02958328,-0.003376597,0.03039336,172.17.160.76,10.64.29.0,2,unknown,2,2014-11-15 17:58:19.372,8,2014-11-15 17:52:35.410,3
2014-11-15 17:58:20.884,12313,410.4333,40.10477,-88.22192,234.8329,0,249.9609,6,10,1416095900,0.1794739,0.9645386,0.0526886,32.92059,28.63705,-5.463959,243.3096,246.3919,10,0.1183067,0.06281811,0.02430188,1.723414,1.829966,-1.408412,0.2199428,0.08500563,0.05644925,-0.006781936,-0.009976935,0.1216073,172.17.160.76,10.64.29.0,2,unknown,2,2014-11-15 17:58:19.372,8,2014-11-15 17:52:35.410,3
2014-11-15 17:58:20.918,12314,410.4667,40.10477,-88.22192,234.8329,0,249.9609,6,10,1416095900,0.09864807,0.9253387,-0.04173279,33.22952,28.9468,-4.556305,245.2997,248.382,10,-0.04886395,0.03258964,-0.04953506,1.719262,1.830922,-1.407353,0.07004479,0.1521384,-0.06894673,-0.02894658,0.007513562,-0.01406478,172.17.160.76,10.64.29.0,2,unknown,2,2014-11-15 17:58:19.372,8,2014-11-15 17:52:35.410,3
2014-11-15 17:58:20.951,12315,410.5,40.10477,-88.22192,234.8329,0,249.9609,6,10,1416095900,0.386795,1.229324,0.1345367,33.26385,29.05003,-3.917633,246.4431,249.5255,10,-0.008944226,0.004766526,-0.2143608,1.72835,1.83788,-1.405279,-0.08120544,-0.2138012,0.1483578,-0.005691724,-0.03702302,-0.05903272,172.17.160.76,10.64.29.0,2,unknown,2,2014-11-15 17:58:19.372,8,2014-11-15 17:52:35.410,3
2014-11-15 17:58:20.984,12316,410.5334,40.10477,-88.22192,234.8329,0,249.9609,6,10,1416095900,0.1113892,0.8590698,-0.05799866,33.3325,28.7747,-3.581512,247.0662,250.1485,10,0.04002332,0.2247569,-0.4883095,1.727816,1.836316,-1.405457,0.05651515,0.07147473,-0.1988218,0.2279757,0.2429618,0.09134738,172.17.160.76,10.64.29.0,2,unknown,2,2014-11-15 17:58:19.372,8,2014-11-15 17:52:35.410,3
2014-11-15 17:58:21.018,12317,410.5667,40.10477,-88.22192,234.8329,0,249.9609,6,10,1416095900,0.1365204,0.9947968,0.01315308,32.92059,28.9812,-2.774811,249.1579,252.2402,10,0.1404365,0.1544708,-0.2205007,1.733073,1.852071,-1.421427,0.07178313,0.2771401,-0.2604235,-0.03157754,-0.1297953,-0.09930669,172.17.160.76,10.64.29.0,2,unknown,2,2014-11-15 17:58:19.372,8,2014-11-15 17:52:35.410,3
2014-11-15 17:58:21.051,12318,410.6,40.10477,-88.22192,234.8329,0,249.9609,6,10,1416095900,0.03045654,0.9811401,0.03266907,32.64598,29.39419,-2.842072,249.1679,252.2502,10,0.2836685,0.3312387,-0.3018403,1.707296,1.833866,-1.429029,0.285948,0.2794454,-0.2230001,8.873807e-05,0.004828882,-0.02358955,172.17.160.76,10.64.29.0,2,unknown,2,2014-11-15 17:58:19.372,8,2014-11-15 17:52:35.410,3
2014-11-15 17:58:21.084,12319,410.6334,40.10477,-88.22192,234.8329,0,249.9609,6,10,1416095900,0.04902649,0.8462677,-0.08210754,32.4057,29.56628,-2.60672,250.4258,253.5081,10,0.1607116,-0.07873636,-0.2865551,1.646609,1.784682,-1.442022,0.3751403,0.2904024,-0.455741,-0.03123892,0.06006829,0.1273746,172.17.160.76,10.64.29.0,2,unknown,2,2014-11-15 17:58:19.372,8,2014-11-15 17:52:35.410,3
2014-11-15 17:58:21.117,12320,410.6667,40.10477,-88.22192,234.8066,0,253.8281,6,10,1416095901,0.217392,1.169937,0.3738708,31.85648,29.22211,-3.413361,250.769,253.8513,10,0.2449666,0.4843044,-0.1554663,1.600181,1.740475,-1.452666,0.2216015,0.04834884,-0.1549799,-0.06713673,-0.146763,-0.1020093,172.17.160.76,10.64.29.0,2,unknown,2,2014-11-15 17:58:19.372,8,2014-11-15 17:52:35.410,3
2014-11-15 17:58:21.151,12321,410.7,40.10477,-88.22192,234.8066,0,253.8281,6,10,1416095901,0.1051788,1.129013,0.02508545,31.85648,29.70393,-3.077271,252.2604,255.3427,10,0.4331506,-0.5679404,-0.608596,1.43972,1.593934,-1.467723,0.5008268,-0.3215362,-0.5761973,-0.1417735,0.2478306,0.19458,172.17.160.76,10.64.29.0,2,unknown,2,2014-11-15 17:58:19.372,8,2014-11-15 17:52:35.410,3
2014-11-15 17:58:21.184,12322,410.7334,40.10477,-88.22192,234.8066,0,253.8281,6,10,1416095901,0.03507996,0.7835693,-0.1880188,31.27294,29.32536,-3.178101,252.5258,255.6081,10,0.3791465,0.5947803,-0.4334953,1.246064,1.395264,-1.482294,0.6139794,0.3465994,-0.4563397,-0.02301845,0.007377557,-0.2826146,172.17.160.76,10.64.29.0,2,unknown,2,2014-11-15 17:58:19.372,8,2014-11-15 17:52:35.410,3
2014-11-15 17:58:21.218,12323,410.7667,40.10477,-88.22192,234.8066,0,253.8281,6,10,1416095901,0.07597351,1.446274,-0.01373291,31.37592,29.49744,-3.615082,254.3967,257.479,10,0.4697196,-0.649675,-0.7365412,1.08018,1.250968,-1.490323,0.3495913,0.7374488,-0.3545738,0.1892846,-0.01431139,0.2682242,172.17.160.76,10.64.29.0,2,unknown,2,2014-11-15 17:58:19.372,8,2014-11-15 17:52:35.410,3
2014-11-15 17:58:21.251,12324,410.8,40.10477,-88.22192,234.8066,0,253.8281,6,10,1416095901,-0.09475708,0.8825226,-0.2253876,31.03266,29.15327,-4.152924,255.3087,258.391,10,0.4683041,0.4312313,-0.6989993,0.6385031,0.8023444,-1.502636,0.641278,-0.09045559,-0.7824957,0.07792383,0.3307979,-0.1703916,172.17.160.76,10.64.29.0,2,unknown,2,2014-11-15 17:58:19.372,8,2014-11-15 17:52:35.410,3
2014-11-15 17:58:21.284,12325,410.8333,40.10477,-88.22192,234.8066,0,253.8281,6,10,1416095901,0.06672668,1.488007,0.1419373,30.6894,29.63509,-3.883942,256.9344,260.0167,10,0.5330504,0.04120017,-0.7044802,0.2494165,0.4261822,-1.501198,0.4503987,0.6219897,-0.5827166,-0.03576746,-0.2342886,-0.04065203,172.17.160.76,10.64.29.0,2,unknown,2,2014-11-15 17:58:19.372,8,2014-11-15 17:52:35.410,3
2014-11-15 17:58:21.318,12326,410.8667,40.10477,-88.22192,234.8066,0,253.8281,6,10,1416095901,-0.05023193,0.9601593,-0.1116486,29.6253,30.15134,-3.04364,260.9883,264.0706,10,0.5252177,-0.6727518,-1.116881,-0.07708783,0.1043914,-1.490561,0.6402192,-0.6589714,-0.9298472,0.05837496,0.4912237,0.2216504,172.17.160.76,10.64.29.0,2,unknown,2,2014-11-15 17:58:19.372,8,2014-11-15 17:52:35.410,3
2014-11-15 17:58:21.350,12327,410.9,40.10477,-88.22192,234.8066,0,253.8281,6,10,1416095901,0.2019806,0.8663635,0.03634644,28.6985,30.39226,-2.80835,262.6419,265.7242,10,0.3512944,0.1559803,-0.8539256,-0.4156781,-0.2527979,-1.470006,0.5225601,-0.2134671,-1.039578,-0.02506552,-0.03476565,-0.0142268,172.17.160.76,10.64.29.0,2,unknown,2,2014-11-15 17:58:19.372,8,2014-11-15 17:52:35.410,3
2014-11-15 17:58:21.384,12328,410.9333,40.10477,-88.22192,234.8066,0,253.8281,6,10,1416095901,-0.08709717,1.03212,0.01722717,27.56574,30.90849,-2.774811,265.9407,269.023,10,0.3397996,-0.433846,-0.7274877,-0.6100044,-0.4301131,-1.448058,0.3318368,0.2595886,-0.5990421,0.2530307,-0.1261136,0.1476255,172.17.160.76,10.64.29.0,2,unknown,2,2014-11-15 17:58:19.372,8,2014-11-15 17:52:35.410,3
2014-11-15 17:58:21.418,12329,410.9667,40.10477,-88.22192,234.8066,0,253.8281,6,10,1416095901,-0.0153656,0.7185059,-0.1801605,26.33,31.59682,-2.842102,270.5169,273.5992,10,0.1145583,-0.3158727,-0.5965223,-0.7486026,-0.5934852,-1.421786,0.2321986,-0.7206879,-0.6845039,-0.1029627,-0.1280634,0.004267685,172.17.160.76,10.64.29.0,2,unknown,2,2014-11-15 17:58:19.372,8,2014-11-15 17:52:35.410,3
2014-11-15 17:58:21.451,12330,411,40.10477,-88.22192,234.8066,0,253.8281,6,10,1416095901,0.07839966,0.8552399,-0.07505798,25.95242,31.83774,-2.674042,272.5887,275.671,10,0.1663823,0.1439758,-0.3427235,-0.8095575,-0.6531246,-1.408278,0.2045108,0.4098533,-0.4067076,0.2426106,-0.25257,0.06017392,172.17.160.76,10.64.29.0,2,unknown,2,2014-11-15 17:58:19.372,8,2014-11-15 17:52:35.410,3
2014-11-15 17:58:21.484,12331,411.0334,40.10477,-88.22192,234.8066,0,253.8281,6,10,1416095901,-0.1956482,0.8589783,-0.02128601,24.99129,32.25072,-2.405151,274.007,277.0893,10,0.1770241,-0.8348776,-0.2322165,-0.8204195,-0.6667833,-1.397131,0.2778174,-0.5460941,-0.213519,0.08217739,-0.1156343,0.1237293,172.17.160.76,10.64.29.0,2,unknown,2,2014-11-15 17:58:19.372,8,2014-11-15 17:52:35.410,3
2014-11-15 17:58:21.518,12332,411.0667,40.10477,-88.22192,234.8066,0,253.8281,6,10,1416095901,0.1554108,0.717804,0.002990723,24.71668,32.66371,-2.405151,275.2144,278.2967,10,-0.00625976,0.160416,-0.004439223,-0.8277306,-0.6935869,-1.387656,0.157558,-0.4294438,-0.2517293,-0.06715023,-0.2209475,0.02013788,172.17.160.76,10.64.29.0,2,unknown,2,2014-11-15 17:58:19.372,8,2014-11-15 17:52:35.410,3
2014-11-15 17:58:21.551,12333,411.1,40.10477,-88.22192,234.8066,0,253.8281,6,10,1416095901,-0.1585693,0.9125366,-0.03219604,24.88831,32.6293,-2.707672,275.1002,278.1825,10,0.1634363,-0.4911476,0.1188721,-0.8140137,-0.6757478,-1.38494,0.1450366,0.04735793,0.1329618,0.2597925,-0.1564538,0.1534109,172.17.160.76,10.64.29.0,2,unknown,2,2014-11-15 17:58:19.372,8,2014-11-15 17:52:35.410,3
2014-11-15 17:58:21.584,12334,411.1334,40.10477,-88.22192,234.8066,0,253.8281,6,10,1416095901,0.1170197,0.7940063,-0.07321167,24.95696,32.83579,-2.976593,275.0378,278.1201,10,0.0387964,-0.1847046,0.1676577,-0.7883029,-0.6574095,-1.383374,0.2288766,-0.4244575,0.1344131,-0.04471076,-0.06995115,0.1152964,172.17.160.76,10.64.29.0,2,unknown,2,2014-11-15 17:58:19.372,8,2014-11-15 17:52:35.410,3
2014-11-15 17:58:21.618,12335,411.1667,40.10477,-88.22192,234.8066,0,253.8281,6,10,1416095901,-0.1037903,0.9462738,-0.02597046,25.09426,32.21631,-3.917816,273.3505,276.4328,10,0.1052042,-0.1785942,0.4190125,-0.7354742,-0.60591,-1.384607,0.1062765,0.3857689,0.3418818,0.2224447,-0.1887105,0.07895011,172.17.160.76,10.64.29.0,2,unknown,2,2014-11-15 17:58:19.372,8,2014-11-15 17:52:35.410,3
2014-11-15 17:58:21.651,12336,411.2,40.10477,-88.22192,234.8066,0,253.8281,6,10,1416095901,-0.09942627,0.9571838,-0.1893616,24.95696,32.35397,-4.052277,273.1074,276.1897,10,0.07764872,-0.2822519,0.3389586,-0.6668707,-0.538825,-1.387452,0.1183402,-0.332085,0.4006837,-0.01023725,-0.0369656,0.1305163,172.17.160.76,10.64.29.0,2,unknown,2,2014-11-15 17:58:19.372,8,2014-11-15 17:52:35.410,3
2014-11-15 17:58:21.684,12337,411.2334,40.10477,-88.22192,234.8066,0,253.8281,6,10,1416095901,0.07910156,0.839447,-0.1087189,25.78079,32.07864,-4.926178,271.287,274.3693,10,-0.1028228,0.267938,0.5813651,-0.560592,-0.4321297,-1.391351,0.01755726,0.4822131,0.4446239,0.01550025,-0.1776379,-0.06221188,172.17.160.76,10.64.29.0,2,unknown,2,2014-11-15 17:58:19.372,8,2014-11-15 17:52:35.410,3
2014-11-15 17:58:21.718,12338,411.2667,40.10477,-88.22192,234.8066,0,253.8281,6,10,1416095901,-0.1029053,1.19516,-0.04481506,26.9822,32.11307,-4.825348,270.706,273.7883,10,-0.05645289,-0.4802207,0.5687599,-0.4622302,-0.3307723,-1.400381,-0.08168829,-0.1418688,0.673112,0.1803994,0.09752397,0.2709334,172.17.160.76,[inet_ntoa,2,unknown,2,2014-11-15 17:58:19.372,8,2014-11-15 17:52:35.410,3
2014-11-15 17:58:21.751,12339,411.3,40.10477,-88.22192,234.8066,0,253.8281,6,10,1416095901,0.3564758,0.1928253,0.2817841,27.39411,31.63125,-4.690887,270.364,273.4463,10,0.3337074,-0.6123849,-0.1668811,-0.3785901,-0.2693836,-1.408883,0.2938149,-1.262638,0.3038386,-0.2967576,2.167056,1.737332,172.17.160.76,10.64.29.0,2,unknown,2,2014-11-15 17:58:19.372,8,2014-11-15 17:52:35.410,3
2014-11-15 17:58:21.784,12340,411.3333,40.10477,-88.22192,234.8066,0,253.8281,6,10,1416095901,0.1859589,1.476501,0.3749542,28.28658,31.42475,-4.690887,268.5779,271.6602,10,-0.02912513,-0.2918904,0.7458553,-0.3959263,-0.2877524,-1.406873,-0.1772843,0.1324978,0.2736745,-0.5333989,-1.056053,-1.163679,172.17.160.76,10.64.29.0,2,unknown,2,2014-11-15 17:58:19.372,8,2014-11-15 17:52:35.410,3
2014-11-15 17:58:21.818,12341,411.3667,40.10477,-88.22192,234.8066,0,253.8281,6,10,1416095901,-0.03164673,0.6148834,-0.2722931,28.35524,31.14943,-4.892548,268.2875,271.3698,10,0.3215437,0.5991622,0.2864283,-0.3134818,-0.2097317,-1.403807,0.3611002,-0.05892744,-0.1380202,0.2205642,0.4904118,0.537526,172.17.160.76,10.64.29.0,2,unknown,2,2014-11-15 17:58:19.372,8,2014-11-15 17:52:35.410,3
2014-11-15 17:58:21.851,12342,411.4,40.10477,-88.22192,234.8066,0,253.8281,6,10,1416095901,0.1025391,0.9798584,-0.09487915,28.93878,31.04618,-5.329498,267.1991,270.2814,10,0.1763186,0.03240481,0.2224216,-0.2534945,-0.1331969,-1.391334,0.2651423,0.3685887,0.3284579,-0.08486076,0.0696949,-0.0433408,172.17.160.76,10.64.29.0,2,unknown,2,2014-11-15 17:58:19.372,8,2014-11-15 17:52:35.410,3
2014-11-15 17:58:21.884,12343,411.4333,40.10477,-88.22192,234.8066,0,253.8281,6,10,1416095901,-0.2518005,1.207748,-0.03408813,29.04175,30.59875,-5.295929,267.4963,270.5786,10,0.2610137,0.1461489,0.09320265,-0.2221129,-0.09885447,-1.38796,0.2417549,0.09909096,0.2379617,0.1204834,-0.003473597,0.08605229,172.17.160.76,10.64.29.0,2,unknown,2,2014-11-15 17:58:19.372,8,2014-11-15 17:52:35.410,3
2014-11-15 17:58:21.918,12344,411.4667,40.10477,-88.22192,234.8066,0,253.8281,6,10,1416095901,0.06884766,0.822464,-0.2290039,29.69395,30.28902,-5.598419,267.1669,270.2492,10,0.03068015,0.09532306,0.1022894,-0.1914441,-0.06591086,-1.376532,0.184521,-0.0954726,0.07792907,-0.2607077,0.2229115,-0.06280696,172.17.160.76,10.64.29.0,2,unknown,2,2014-11-15 17:58:19.372,8,2014-11-15 17:52:35.410,3
2014-11-15 17:58:21.950,12345,411.5,40.10477,-88.22192,234.8066,0,253.8281,6,10,1416095901,-0.0955658,1.296021,-0.0785675,29.79693,30.52992,-5.497528,267.3466,270.429,10,0.08232204,-0.1555249,0.2355832,-0.1725606,-0.04356612,-1.37307,0.1611255,0.3270386,0.1662216,0.07740309,-0.1580518,-0.03275003,172.17.160.76,10.64.29.0,2,unknown,2,2014-11-15 17:58:19.372,8,2014-11-15 17:52:35.410,3
2014-11-15 17:58:21.984,12346,411.5334,40.10477,-88.22192,234.8066,0,253.8281,6,10,1416095901,-0.06504822,0.7844696,-0.2565765,30.51777,30.08251,-4.993378,267.8955,270.9778,10,0.1056979,-0.5524381,0.1601633,-0.1265342,-0.003964943,-1.367102,0.1646271,-0.5461587,0.196639,-0.09476373,0.3166946,0.12372,172.17.160.76,10.64.29.0,2,unknown,2,2014-11-15 17:58:19.372,8,2014-11-15 17:52:35.410,3
2014-11-15 17:58:22.018,12347,411.5667,40.10477,-88.22192,234.8066,0,253.8281,6,10,1416095901,0.1425781,1.105347,-0.06314087,30.99833,30.289,-4.455597,268.5902,271.6725,10,0.07310803,-0.08354336,0.4811991,-0.09706365,0.0160474,-1.362916,0.08063857,-0.009071931,0.2571017,-0.06836005,-0.1940009,-0.05021642,172.17.160.76,10.64.29.0,2,unknown,2,2014-11-15 17:58:19.372,8,2014-11-15 17:52:35.410,3
2014-11-15 17:58:22.050,12348,411.6,40.10477,-88.22192,234.8066,0,253.8281,6,10,1416095901,-0.133255,0.7827606,-0.1867065,31.44457,30.11692,-4.556427,268.2258,271.3081,10,0.2320825,-0.599216,0.3059282,-0.01618636,0.09026773,-1.354842,0.2963122,-0.4438246,0.3898743,-0.05178699,0.2049598,0.07826019,172.17.160.76,10.64.29.0,2,unknown,2,2014-11-15 17:58:19.372,8,2014-11-15 17:52:35.410,3
2014-11-15 17:58:22.085,12349,411.6334,40.10477,-88.22192,234.8066,0,253.8281,6,10,1416095901,0.2095795,0.7017059,-0.06739807,31.4789,30.56434,-5.93454,266.2633,269.3456,10,-0.07478795,-0.04266704,0.3970496,0.02383722,0.1181184,-1.347206,0.09954709,-0.1254893,0.3201065,-0.1234351,-0.3476052,0.01167574,172.17.160.76,10.64.29.0,2,unknown,2,2014-11-15 17:58:19.372,8,2014-11-15 17:52:35.410,3
2014-11-15 17:58:22.118,12350,411.6667,40.10477,-88.22192,234.7303,0.59,256.2891,6,10,1416095902,-0.01657104,1.019379,-0.1382446,31.99379,30.46109,-6.371552,265.4485,268.5309,10,-0.1149178,-0.1111971,0.6070125,0.06338518,0.1569862,-1.346515,-0.08643476,0.02379873,0.5200862,0.07748757,-0.4089905,0.003392357,172.17.160.76,10.64.29.0,2,unknown,2,2014-11-15 17:58:19.372,8,2014-11-15 17:52:35.410,3
2014-11-15 17:58:22.151,12351,411.7,40.10477,-88.22192,234.7303,0.59,256.2891,6,10,1416095902,0.11026,0.455307,-0.2401733,32.33705,30.04809,-7.783295,262.7743,265.8566,10,-0.2003483,-0.1044034,0.6572578,0.1765524,0.2578227,-1.339276,0.05211367,-0.2327416,0.4672651,-0.1138192,-0.1271578,0.06277002,172.17.160.76,10.64.29.0,2,unknown,2,2014-11-15 17:58:19.372,8,2014-11-15 17:52:35.410,3
2014-11-15 17:58:22.184,12352,411.7334,40.10477,-88.22192,234.7303,0.59,256.2891,6,10,1416095902,0.1695709,1.15448,-0.06214905,33.60711,29.53185,-8.085785,261.1241,264.2064,10,-0.1791397,0.1843738,0.7680317,0.2259502,0.3035186,-1.337109,-0.1349158,-0.03772115,0.672797,-0.08366043,-0.473689,-0.02837796,172.17.160.76,10.64.29.0,2,unknown,2,2014-11-15 17:58:19.372,8,2014-11-15 17:52:35.410,3
2014-11-15 17:58:22.217,12353,411.7667,40.10477,-88.22192,234.7303,0.59,256.2891,6,10,1416095902,-0.0809021,0.6355438,-0.3619232,34.87717,29.49742,-7.985077,259.3509,262.4332,10,-0.05850193,0.01354644,0.6669011,0.3500714,0.4303319,-1.329063,0.0569695,0.08249607,0.7045558,0.06970575,0.1835555,0.1554113,172.17.160.76,10.64.29.0,2,unknown,2,2014-11-15 17:58:19.372,8,2014-11-15 17:52:35.410,3
2014-11-15 17:58:22.250,12354,411.8,40.10477,-88.22192,234.7303,0.59,256.2891,6,10,1416095902,0.3500214,1.115891,0.08001709,35.70099,29.42859,-7.716156,259.5343,262.6166,10,-0.2828027,0.3096207,0.8847809,0.4266129,0.5075994,-1.319205,-0.08392064,0.219258,0.7960294,-0.2019095,-0.3329737,-0.1443666,172.17.160.76,10.64.29.0,2,unknown,2,2014-11-15 17:58:19.372,8,2014-11-15 17:52:35.410,3
2014-11-15 17:58:22.284,12355,411.8333,40.10477,-88.22192,234.7303,0.59,256.2891,6,10,1416095902,0.06462097,0.946167,-0.2648621,37.24566,29.05001,-7.615265,257.407,260.4893,10,0.04808684,-0.2228038,0.6121832,0.5292479,0.618594,-1.308848,-0.05430934,0.3752694,0.9145645,0.1631079,-0.2527219,0.1795429,172.17.160.76,10.64.29.0,2,unknown,2,2014-11-15 17:58:19.372,8,2014-11-15 17:52:35.410,3
2014-11-15 17:58:22.318,12356,411.8667,40.10477,-88.22192,234.7303,0.59,256.2891,6,10,1416095902,0.3028259,0.8144836,-0.1596375,38.72168,27.77661,-7.850494,255.8856,258.9679,10,-0.2536706,0.1043325,0.7169381,0.6012654,0.6874753,-1.290605,0.01144058,0.05192584,0.5931094,-0.07528439,-0.2651101,-0.05678382,172.17.160.76,10.64.29.0,2,unknown,2,2014-11-15 17:58:19.372,8,2014-11-15 17:52:35.410,3
2014-11-15 17:58:22.351,12357,411.9,40.10477,-88.22192,234.7303,0.59,256.2891,6,10,1416095902,0.1919556,1.235626,-0.1717834,39.44252,27.81102,-8.153046,254.4526,257.5349,10,-0.006260825,-0.08762652,0.6396356,0.6876669,0.7746294,-1.275485,-0.05829747,0.00303233,0.7279212,0.1411907,0.1732932,0.1655487,172.17.160.76,10.64.29.0,2,unknown,2,2014-11-15 17:58:19.372,8,2014-11-15 17:52:35.410,3
2014-11-15 17:58:22.385,12358,411.9333,40.10477,-88.22192,234.7303,0.59,256.2891,6,10,1416095902,0.3210754,0.5268097,-0.3012695,40.88421,27.39802,-8.959808,252.4928,255.5751,10,0.03599156,0.006476808,0.4393529,0.7184501,0.8058903,-1.260966,0.188983,0.1504667,0.4263106,-0.1518217,0.08824894,-0.1614876,172.17.160.76,10.64.29.0,2,unknown,2,2014-11-15 17:58:19.372,8,2014-11-15 17:52:35.410,3
2014-11-15 17:58:22.418,12359,411.9667,40.10477,-88.22192,234.7303,0.59,256.2891,6,10,1416095902,0.3692474,1.291061,-0.05982971,42.22292,27.50126,-10.20358,249.9959,253.0782,10,0.05253964,-0.3552875,0.5159355,0.7511125,0.8377181,-1.24991,-0.09830932,-0.05674952,0.5473041,0.08668994,-0.4221464,-0.09021094,172.17.160.76,10.64.29.0,2,unknown,2,2014-11-15 17:58:19.372,8,2014-11-15 17:52:35.410,3
2014-11-15 17:58:22.451,12360,412,40.10477,-88.22192,234.7303,0.59,256.2891,6,10,1416095902,0.09770203,0.7284088,-0.3923492,42.56618,27.08826,-10.5397,249.0224,252.1047,10,0.1685589,-0.3330704,0.2279565,0.7767595,0.8546586,-1.236585,0.2600554,-0.3320148,0.4203191,0.1218033,0.3463921,0.1555104,172.17.160.76,10.64.29.0,2,unknown,2,2014-11-15 17:58:19.372,8,2014-11-15 17:52:35.410,3
2014-11-15 17:58:22.484,12361,412.0334,40.10477,-88.22192,234.7303,0.59,256.2891,6,10,1416095902,0.4072418,0.9923706,-0.269577,43.49298,26.98503,-11.85062,246.6715,249.7538,10,-0.002381931,-0.5407197,0.2986224,0.7825551,0.8486034,-1.223611,-0.003869426,-0.2872539,0.2803659,-0.1207285,-0.3780173,-0.1517609,172.17.160.76,10.64.29.0,2,unknown,2,2014-11-15 17:58:19.372,8,2014-11-15 17:52:35.410,3
2014-11-15 17:58:22.518,12362,412.0667,40.10477,-88.22192,234.7303,0.59,256.2891,6,10,1416095902,0.1891022,1.114029,-0.2074127,44.07652,26.67529,-12.95987,245.0284,248.1107,10,0.4290771,-0.4161711,0.07368993,0.7952294,0.8469278,-1.215456,0.220774,-0.5527773,0.3099708,0.1465711,0.05484236,-0.03916093,172.17.160.76,10.64.29.0,2,unknown,2,2014-11-15 17:58:19.372,8,2014-11-15 17:52:35.410,3
2014-11-15 17:58:22.551,12363,412.1,40.10477,-88.22192,234.7303,0.59,256.2891,6,10,1416095902,0.1781921,0.6200409,-0.5028534,44.52276,26.43437,-14.00186,243.8407,246.923,10,0.1606808,-0.3325628,0.0125078,0.7751127,0.815224,-1.203672,0.4595763,-0.35117,0.005492859,-0.07215784,0.1806657,0.0387097,172.17.160.76,10.64.29.0,2,unknown,2,2014-11-15 17:58:19.372,8,2014-11-15 17:52:35.410,3
2014-11-15 17:58:22.584,12364,412.1334,40.10477,-88.22192,234.7303,0.59,256.2891,6,10,1416095902,0.5142822,1.407913,-0.01806641,44.72872,25.81487,-15.48074,242.8452,245.9275,10,0.3892317,-0.4470867,0.1989312,0.7616358,0.7887186,-1.194971,0.2051406,-0.4706635,0.2085636,-0.08220493,-0.3101641,-0.2441799,172.17.160.76,10.64.29.0,2,unknown,2,2014-11-15 17:58:19.372,8,2014-11-15 17:52:35.410,3
2014-11-15 17:58:22.617,12365,412.1667,40.10477,-88.22192,234.7303,0.59,256.2891,6,10,1416095902,0.06126404,0.5191803,-0.4882965,44.93468,25.40189,-16.28745,241.9091,244.9914,10,0.5676658,-0.5519812,-0.3149851,0.7485875,0.7684311,-1.185311,0.6917213,-0.4305278,0.0657757,0.2529528,0.4812973,0.2522849,172.17.160.76,10.64.29.0,2,unknown,2,2014-11-15 17:58:19.372,8,2014-11-15 17:52:35.410,3
2014-11-15 17:58:22.651,12366,412.2,40.10477,-88.22192,234.7303,0.59,256.2891,6,10,1416095902,0.5327606,1.291428,-0.1745453,44.90035,24.88564,-18.3378,239.9639,243.0462,10,0.2480748,-0.5976336,-0.04759681,0.6896181,0.6886868,-1.17301,0.1994886,-0.5310777,-0.05391969,-0.1095765,-0.2361907,-0.1781461,172.17.160.76,10.64.29.0,2,unknown,2,2014-11-15 17:58:19.372,8,2014-11-15 17:52:35.410,3
2014-11-15 17:58:22.685,12367,412.2334,40.10477,-88.22192,234.7303,0.59,256.2891,6,10,1416095902,0.04263306,0.8949585,-0.3582001,44.76305,24.40382,-20.35464,239.5659,242.6482,10,0.5731999,-0.4343227,-0.3525996,0.66422,0.6508117,-1.163488,0.6263426,-0.3950306,-0.1630729,0.3119623,0.4444956,0.1674906,172.17.160.76,10.64.29.0,2,unknown,2,2014-11-15 17:58:19.372,8,2014-11-15 17:52:35.410,3
2014-11-15 17:58:22.718,12368,412.2667,40.10477,-88.22192,234.7303,0.59,256.2891,6,10,1416095902,0.2098389,0.9778748,-0.3634186,44.31681,24.5759,-22.40506,238.0807,241.163,10,-0.1366638,-1.000135,-0.1852069,0.6125959,0.5824277,-1.155963,0.09637117,-0.8415542,-0.2292518,-0.1435668,-0.2004619,-0.2170921,172.17.160.76,10.64.29.0,2,unknown,2,2014-11-15 17:58:19.372,8,2014-11-15 17:52:35.410,3
2014-11-15 17:58:22.751,12369,412.3,40.10477,-88.22192,234.7303,0.59,256.2891,6,10,1416095902,0.09657288,0.9840546,-0.4838562,44.0422,24.64473,-23.0773,238.1291,241.2114,10,0.05966812,-0.5359798,-0.4796513,0.6066865,0.5585902,-1.158845,-0.07124952,-0.9334698,-0.1696652,-0.002368563,0.06153343,-0.02387981,172.17.160.76,10.64.29.0,2,unknown,2,2014-11-15 17:58:19.372,8,2014-11-15 17:52:35.410,3
2014-11-15 17:58:22.784,12370,412.3333,40.10477,-88.22192,234.7303,0.59,256.2891,6,10,1416095902,0.2116241,0.8328552,-0.4862671,43.01242,25.12654,-25.16135,236.9252,240.0075,10,-0.1723995,-0.8874814,-0.3256569,0.5641996,0.4991032,-1.164072,0.08796072,-0.3984455,-0.5092413,-0.09277792,0.065633,-0.1365118,172.17.160.76,10.64.29.0,2,unknown,2,2014-11-15 17:58:19.372,8,2014-11-15 17:52:35.410,3
2014-11-15 17:58:22.818,12371,412.3667,40.10477,-88.22192,234.7303,0.59,256.2891,6,10,1416095902,0.2929077,1.17569,-0.2960815,41.98265,24.85122,-27.24533,235.7472,238.8295,10,0.08466402,-0.5323893,-0.2833518,0.547843,0.4699726,-1.168569,-0.1069859,-0.8208167,-0.3101154,-0.1323138,-0.1095223,-0.2966036,172.17.160.76,10.64.29.0,2,unknown,2,2014-11-15 17:58:19.372,8,2014-11-15 17:52:35.410,3
2014-11-15 17:58:22.851,12372,412.4,40.10477,-88.22192,234.7303,0.59,256.2891,6,10,1416095902,0.08110046,0.8423767,-0.5161591,41.09017,25.26421,-28.72427,235.1298,238.2121,10,0.08214653,-0.3765289,-0.4693425,0.5134236,0.4202983,-1.168735,0.2818229,-0.1735114,-0.3994502,0.133238,0.2554333,0.06117707,172.17.160.76,10.64.29.0,2,unknown,2,2014-11-15 17:58:19.372,8,2014-11-15 17:52:35.410,3
2014-11-15 17:58:22.884,12373,412.4333,40.10477,-88.22192,234.7303,0.59,256.2891,6,10,1416095902,0.2251129,1.137833,-0.2469177,40.16337,25.16097,-30.57297,233.5496,236.6319,10,-0.09907625,-0.5616985,-0.5184671,0.4627189,0.3542581,-1.172852,-0.08753105,-0.631996,-0.350592,-0.151001,-0.1428833,-0.2260021,172.17.160.76,10.64.29.0,2,unknown,2,2014-11-15 17:58:19.372,8,2014-11-15 17:52:35.410,3
2014-11-15 17:58:22.918,12374,412.4667,40.10477,-88.22192,234.7303,0.59,256.2891,6,10,1416095902,-0.003295898,0.9741516,-0.5266724,39.33954,26.12463,-31.85013,234.6242,237.7065,10,0.01694623,-0.2371433,-0.7305503,0.4179154,0.3020626,-1.17759,0.1197143,-0.1801902,-0.732184,0.1376029,0.2856349,0.1507019,172.17.160.76,10.64.29.0,2,unknown,2,2014-11-15 17:58:19.372,8,2014-11-15 17:52:35.410,3
2014-11-15 17:58:22.951,12375,412.5,40.10477,-88.22192,234.7303,0.59,256.2891,6,10,1416095902,0.1140137,1.04248,-0.3802948,38.92764,26.12463,-31.98465,235.3126,238.3949,10,-0.1883867,-0.5888659,-0.6042558,0.3658816,0.2453699,-1.182521,-0.1025282,-0.4460417,-0.6329725,-0.004639769,0.0292857,-0.1807211,172.17.160.76,10.64.29.0,2,unknown,2,2014-11-15 17:58:19.372,8,2014-11-15 17:52:35.410,3
2014-11-15 17:58:22.984,12376,412.5334,40.10477,-88.22192,234.7303,0.59,256.2891,6,10,1416095902,0.1194,1.123123,-0.4378662,38.24111,26.81295,-32.58963,235.6427,238.725,10,0.06142687,-0.3173401,-0.6536511,0.3201433,0.1890911,-1.188332,0.03077491,-0.3642484,-0.6277336,0.08652678,0.1549549,-0.002234158,172.17.160.76,10.64.29.0,2,unknown,2,2014-11-15 17:58:19.372,8,2014-11-15 17:52:35.410,3
2014-11-15 17:58:23.018,12377,412.5667,40.10477,-88.22192,234.7303,0.59,256.2891,6,10,1416095902,0.0289917,0.9276733,-0.4247589,37.0397,27.60453,-33.02664,237.3837,240.466,10,-0.2159613,-0.5349151,-0.6378359,0.269955,0.134528,-1.188951,-0.004441527,-0.3141052,-0.6029238,-0.0621551,0.1963501,-0.1117817,172.17.160.76,10.64.29.0,2,unknown,2,2014-11-15 17:58:19.372,8,2014-11-15 17:52:35.410,3
2014-11-15 17:58:23.051,12378,412.6,40.10477,-88.22192,234.7303,0.59,256.2891,6,10,1416095902,0.1209259,1.181351,-0.4150696,36.42184,28.22402,-33.22824,237.1681,240.2504,10,-0.1394988,-0.1552213,-0.4439945,0.2068488,0.05741144,-1.197066,-0.171109,-0.4919724,-0.5278712,-0.009642135,0.03431448,-0.05427255,172.17.160.76,10.64.29.0,2,unknown,2,2014-11-15 17:58:19.372,8,2014-11-15 17:52:35.410,3
2014-11-15 17:58:23.084,12379,412.6334,40.10477,-88.22192,234.7303,0.59,256.2891,6,10,1416095902,0.08746338,1.032928,-0.4352875,34.67122,29.15325,-33.46359,238.3394,241.4218,10,-0.0311462,-0.09788715,-0.3018597,0.1710491,0.01931166,-1.20004,-0.01022889,-0.0265859,-0.378477,0.1252666,0.2792806,-0.007483003,172.17.160.76,10.64.29.0,2,unknown,2,2014-11-15 17:58:19.372,8,2014-11-15 17:52:35.410,3
2014-11-15 17:58:23.118,12380,412.6667,40.10477,-88.22192,234.7775,0.19,241.875,6,10,1416095903,0.05177307,0.8917847,-0.3680573,33.88172,29.2565,-33.76614,238.0625,241.1449,10,-0.1258338,-0.2510866,-0.05074067,0.1561537,0.00432399,-1.19956,0.02331842,-0.1071612,-0.2113128,0.08589478,0.1010489,-0.07252306,172.17.160.76,10.64.29.0,2,unknown,2,2014-11-15 17:58:19.372,8,2014-11-15 17:52:35.410,3
2014-11-15 17:58:23.151,12381,412.7,40.10477,-88.22192,234.7775,0.19,241.875,6,10,1416095903,-0.06619263,0.9831543,-0.3695526,33.9847,29.49741,-33.73251,238.5861,241.6684,10,0.03710289,0.05799299,0.08402353,0.1540431,0.000728767,-1.1994,0.08030994,0.2093687,0.05975686,0.181193,0.06895663,0.01928871,172.17.160.76,10.64.29.0,2,unknown,2,2014-11-15 17:58:19.372,8,2014-11-15 17:52:35.410,3
2014-11-15 17:58:23.184,12382,412.7334,40.10477,-88.22192,234.7775,0.19,241.875,6,10,1416095903,-0.05206299,0.8053131,-0.361908,34.25931,29.49741,-33.53079,238.5111,241.5934,10,-0.1357408,-0.06612522,0.09993938,0.1596746,0.007989941,-1.19789,0.02882065,0.03346558,0.1205893,-0.02926282,0.1597463,-0.03955745,172.17.160.76,10.64.29.0,2,unknown,2,2014-11-15 17:58:19.372,8,2014-11-15 17:52:35.410,3
2014-11-15 17:58:23.218,12383,412.7667,40.10477,-88.22192,234.7775,0.19,241.875,6,10,1416095903,0.008911133,0.9978333,-0.3590546,34.32796,29.84158,-33.46353,238.6765,241.7588,10,-0.225263,0.03818227,0.1178076,0.1763644,0.02457946,-1.201923,-0.1512865,0.09834957,0.1184207,0.05244821,-0.01708464,-0.03976659,172.17.160.76,10.64.29.0,2,unknown,2,2014-11-15 17:58:19.372,8,2014-11-15 17:52:35.410,3
2014-11-15 17:58:23.251,12384,412.8,40.10477,-88.22192,234.7775,0.19,241.875,6,10,1416095903,-0.06150818,0.7899628,-0.4979248,34.56824,30.08249,-33.22824,238.8691,241.9514,10,-0.2529774,-0.02568779,0.1005913,0.188594,0.03837429,-1.207042,-0.1951289,0.04441004,0.1490837,-0.1207511,-0.02914154,-0.07430106,172.17.160.76,10.64.29.0,2,unknown,2,2014-11-15 17:58:19.372,8,2014-11-15 17:52:35.410,3
2014-11-15 17:58:23.284,12385,412.8333,40.10477,-88.22192,234.7775,0.19,241.875,6,10,1416095903,0.09281921,1.025665,-0.3109589,34.77419,30.49548,-33.42996,238.4043,241.4866,10,-0.2744113,-0.0307185,0.1367355,0.1963674,0.04641806,-1.210841,-0.2100516,0.03482985,0.1459047,-0.07785227,-0.1459496,-0.1460714,172.17.160.76,10.64.29.0,2,unknown,2,2014-11-15 17:58:19.372,8,2014-11-15 17:52:35.410,3
2014-11-15 17:58:23.318,12386,412.8667,40.10477,-88.22192,234.7775,0.19,241.875,6,10,1416095903,-0.1043701,0.8021545,-0.46698,34.77419,30.49548,-33.42996,238.4405,241.5228,10,-0.323209,0.08155026,0.08549679,0.2137949,0.06453441,-1.217044,-0.1321592,0.06442343,0.1298465,0.06982256,0.1648717,0.07290264,172.17.160.76,10.64.29.0,2,unknown,2,2014-11-15 17:58:19.372,8,2014-11-15 17:52:35.410,3
2014-11-15 17:58:23.351,12387,412.9,40.10477,-88.22192,234.7775,0.19,241.875,6,10,1416095903,0.09777832,0.9421692,-0.3121796,35.11745,30.35781,-32.6904,238.286,241.3683,10,-0.2733445,-0.02113964,0.1389049,0.2286095,0.08423134,-1.226875,-0.3080154,0.1069829,0.1264831,-0.1347367,-0.2218198,-0.2022828,172.17.160.76,10.64.29.0,2,unknown,2,2014-11-15 17:58:19.372,8,2014-11-15 17:52:35.410,3
2014-11-15 17:58:23.384,12388,412.9333,40.10477,-88.22192,234.7775,0.19,241.875,6,10,1416095903,-0.008712769,1.059738,-0.4720154,35.42638,30.3234,-32.52243,238.7771,241.8594,10,-0.1633458,0.219984,0.1355168,0.2387823,0.09481782,-1.231825,-0.2079383,0.04551745,0.1544446,0.06629697,-0.0009279611,0.01884413,172.17.160.76,10.64.29.0,2,unknown,2,2014-11-15 17:58:19.372,8,2014-11-15 17:52:35.410,3
2014-11-15 17:58:23.418,12389,412.9667,40.10477,-88.22192,234.7775,0.19,241.875,6,10,1416095903,0.0003509521,0.7011719,-0.4212952,35.83829,30.32341,-32.11899,238.151,241.2333,10,-0.3108293,-0.003655988,0.2007033,0.2598115,0.1244571,-1.236392,-0.1566112,0.2793116,0.1618523,-0.04945497,0.115132,-0.1463479,172.17.160.76,10.64.29.0,2,unknown,2,2014-11-15 17:58:19.372,8,2014-11-15 17:52:35.410,3
2014-11-15 17:58:23.451,12390,413,40.10477,-88.22192,234.7775,0.19,241.875,6,10,1416095903,0.1832428,1.263016,-0.2351074,36.07858,30.42667,-32.28714,237.7344,240.8167,10,-0.2256121,0.2083263,0.2768657,0.2810593,0.149171,-1.242178,-0.2293748,0.1661124,0.2230946,-0.04761354,-0.2453172,-0.1021433,172.17.160.76,10.64.29.0,2,unknown,2,2014-11-15 17:58:19.372,8,2014-11-15 17:52:35.410,3
2014-11-15 17:58:23.484,12391,413.0334,40.10477,-88.22192,234.7775,0.19,241.875,6,10,1416095903,-0.06532288,0.9489288,-0.4893188,36.69645,30.4955,-31.54764,237.0863,240.1686,10,-0.2204392,0.2374613,0.3364427,0.3108657,0.1877248,-1.243684,-0.02153273,0.4279993,0.3022449,0.1232786,0.3160417,0.08055769,172.17.160.76,10.64.29.0,2,unknown,2,2014-11-15 17:58:19.372,8,2014-11-15 17:52:35.410,3
2014-11-15 17:58:23.518,12392,413.0667,40.10477,-88.22192,234.7775,0.19,241.875,6,10,1416095903,0.1780396,1.234756,-0.1669922,36.93673,30.73641,-30.97623,237.1973,240.2796,10,-0.3951833,0.3661394,0.3398977,0.3443279,0.2295258,-1.24557,-0.253242,0.2895848,0.3915481,-0.1294593,-0.1610946,-0.1200391,172.17.160.76,10.64.29.0,2,unknown,2,2014-11-15 17:58:19.372,8,2014-11-15 17:52:35.410,3
2014-11-15 17:58:23.551,12393,413.1,40.10477,-88.22192,234.7775,0.19,241.875,6,10,1416095903,0.09921265,1.016678,-0.3424072,37.76055,30.52991,-29.9678,237.8684,240.9507,10,-0.2630106,0.3746381,0.3479393,0.4111108,0.3125482,-1.253932,-0.1836258,0.433528,0.320926,0.132875,0.3581476,0.07362272,172.17.160.76,10.64.29.0,2,unknown,2,2014-11-15 17:58:19.372,8,2014-11-15 17:52:35.410,3
2014-11-15 17:58:23.584,12394,413.1334,40.10477,-88.22192,234.7775,0.19,241.875,6,10,1416095903,0.07699585,0.9523773,-0.3907013,39.06493,29.91042,-27.88376,238.5181,241.6004,10,-0.2655134,0.4351834,0.4862602,0.4546433,0.3671798,-1.254769,-0.1595938,0.4804772,0.4909247,0.05058526,-0.01100927,-0.05985329,172.17.160.76,10.64.29.0,2,unknown,2,2014-11-15 17:58:19.372,8,2014-11-15 17:52:35.410,3
2014-11-15 17:58:23.618,12395,413.1667,40.10477,-88.22192,234.7775,0.19,241.875,6,10,1416095903,0.2118073,1.165787,-0.2167511,40.43797,29.56625,-26.94272,238.0473,241.1296,10,-0.1223781,0.3513663,0.3706428,0.5196465,0.4474316,-1.254362,-0.1349254,0.4066336,0.4225086,-0.02754644,0.07828988,0.01844796,172.17.160.76,10.64.29.0,2,unknown,2,2014-11-15 17:58:19.372,8,2014-11-15 17:52:35.410,3
2014-11-15 17:58:23.651,12396,413.2,40.10477,-88.22192,234.7775,0.19,241.875,6,10,1416095903,0.1897278,1.039719,-0.3270111,41.05584,29.08442,-26.13596,238.1617,241.244,10,-0.08526563,0.5967047,0.4991736,0.5440248,0.4793461,-1.251718,-0.0271869,0.4820003,0.4193175,0.06713305,0.2162618,0.06158626,172.17.160.76,10.64.29.0,2,unknown,2,2014-11-15 17:58:19.372,8,2014-11-15 17:52:35.410,3
2014-11-15 17:58:23.684,12397,413.2334,40.10477,-88.22192,234.7775,0.19,241.875,6,10,1416095903,0.2536621,1.039963,-0.1356354,42.42888,28.87792,-25.46371,238.1629,241.2453,10,-0.05231594,0.3637867,0.4723481,0.6019785,0.5573581,-1.242346,-0.01693984,0.4691873,0.5529583,-0.07853898,0.07329318,-0.04799014,172.17.160.76,10.64.29.0,2,unknown,2,2014-11-15 17:58:19.372,8,2014-11-15 17:52:35.410,3
2014-11-15 17:58:23.718,12398,413.2667,40.10477,-88.22192,234.7775,0.19,241.875,6,10,1416095903,0.1732788,1.008209,-0.3352509,42.60051,28.43052,-24.75778,238.6994,241.7817,10,-0.04579412,0.466736,0.4569436,0.6401906,0.6068994,-1.234213,0.0067824,0.4908587,0.4691264,0.06530464,0.0960743,0.1356505,172.17.160.76,10.64.29.0,2,unknown,2,2014-11-15 17:58:19.372,8,2014-11-15 17:52:35.410,3
2014-11-15 17:58:23.751,12399,413.3,40.10477,-88.22192,234.7775,0.19,241.875,6,10,1416095903,0.1031342,0.9204254,-0.3053436,43.56164,27.7422,-23.27884,239.0903,242.1726,10,-0.09172592,0.3796895,0.465149,0.6738086,0.6538462,-1.225624,0.004617923,0.4824225,0.4775818,-0.03252577,0.06719201,-0.06667856,172.17.160.76,10.64.29.0,2,unknown,2,2014-11-15 17:58:19.372,8,2014-11-15 17:52:35.410,3
2014-11-15 17:58:23.784,12400,413.3333,40.10477,-88.22192,234.7775,0.19,241.875,6,10,1416095903,0.4255219,1.154922,-0.1540527,44.11085,26.84737,-22.20316,238.2325,241.3148,10,0.1698631,0.681961,0.4073797,0.7249299,0.7279045,-1.209767,0.1594457,0.7116746,0.4527336,0.1659135,0.2167795,0.1695698,172.17.160.76,10.64.29.0,2,unknown,2,2014-11-15 17:58:19.372,8,2014-11-15 17:52:35.410,3
2014-11-15 17:58:23.818,12401,413.3667,40.10477,-88.22192,234.7775,0.19,241.875,6,10,1416095903,0.192215,0.8326874,-0.3501282,44.69439,26.26231,-21.49728,238.4072,241.4895,10,0.2344447,0.3626048,0.4744525,0.7332152,0.7494473,-1.200443,0.2862966,0.5785621,0.421836,0.1102579,0.1625879,0.05227476,172.17.160.76,10.64.29.0,2,unknown,2,2014-11-15 17:58:19.372,8,2014-11-15 17:52:35.410,3
2014-11-15 17:58:23.851,12402,413.4,40.10477,-88.22192,234.7775,0.19,241.875,6,10,1416095903,0.1652527,0.9698181,-0.1209717,45.48389,25.47074,-20.52255,239.059,242.1413,10,0.03644935,0.2278334,0.343922,0.7543039,0.7859067,-1.180103,0.1336165,0.3588471,0.4435418,-0.117492,-0.09516236,-0.007827581,172.17.160.76,10.64.29.0,2,unknown,2,2014-11-15 17:58:19.372,8,2014-11-15 17:52:35.410,3
2014-11-15 17:58:23.884,12403,413.4333,40.10477,-88.22192,234.7775,0.19,241.875,6,10,1416095903,0.3634796,1.049194,-0.2575684,45.82715,24.64476,-19.24521,239.0695,242.1519,10,0.1011586,0.5250902,0.1722234,0.7645038,0.8056589,-1.171214,0.1524966,0.4719207,0.2211552,-0.03745594,0.119441,0.1750982,172.17.160.76,10.64.29.0,2,unknown,2,2014-11-15 17:58:19.372,8,2014-11-15 17:52:35.410,3
2014-11-15 17:58:23.918,12404,413.4667,40.10477,-88.22192,234.7775,0.19,241.875,6,10,1416095903,0.2444,0.8216858,-0.2666931,45.99878,24.26619,-18.20328,239.8159,242.8982,10,-0.008614793,0.07687108,0.04820375,0.7653804,0.8228088,-1.163905,0.1366163,0.4492941,0.1786361,0.03036745,0.05221029,-0.03161687,172.17.160.76,10.64.29.0,2,unknown,2,2014-11-15 17:58:19.372,8,2014-11-15 17:52:35.410,3
2014-11-15 17:58:23.951,12405,413.5,40.10477,-88.22192,234.7775,0.19,241.875,6,10,1416095903,0.3598175,1.08284,-0.2277069,45.82715,24.16293,-17.69907,239.9363,243.0186,10,0.1368795,-0.07139029,-0.1590493,0.7639391,0.8280735,-1.160706,0.07093694,0.05864095,-0.05882421,-0.007479675,-0.02072237,0.01270669,172.17.160.76,10.64.29.0,2,unknown,2,2014-11-15 17:58:19.372,8,2014-11-15 17:52:35.410,3
2014-11-15 17:58:23.984,12406,413.5334,40.10477,-88.22192,234.7775,0.19,241.875,6,10,1416095903,0.2035522,0.8700714,-0.2837677,45.55254,24.02528,-17.22842,240.4798,243.5621,10,0.1263931,-0.2698357,-0.2672647,0.7538884,0.8196663,-1.159933,0.2022678,-0.004749475,-0.1435069,0.06788824,0.1660635,0.04487019,172.17.160.76,10.64.29.0,2,unknown,2,2014-11-15 17:58:19.372,8,2014-11-15 17:52:35.410,3
2014-11-15 17:58:24.018,12407,413.5667,40.10477,-88.22192,234.7775,0.19,241.875,6,10,1416095903,0.4806671,1.00354,-0.266037,45.20928,23.81879,-16.89224,241.0316,244.1139,10,0.2501915,-0.4863486,-0.3675863,0.7214704,0.7803611,-1.162789,0.1631681,-0.4612414,-0.3739831,-0.07559744,-0.04784194,-0.001791578,172.17.160.76,10.64.29.0,2,unknown,2,2014-11-15 17:58:19.372,8,2014-11-15 17:52:35.410,3
2014-11-15 17:58:24.050,12408,413.6,40.10477,-88.22192,234.7775,0.19,241.875,6,10,1416095903,0.1407166,0.9378815,-0.2835541,44.90035,24.33503,-16.38809,242.8107,245.893,10,0.4070019,-0.4866746,-0.4010811,0.6864333,0.7351094,-1.163602,0.4317014,-0.4259586,-0.3280978,0.215059,0.08530459,0.02772482,172.17.160.76,10.64.29.0,2,unknown,2,2014-11-15 17:58:19.372,8,2014-11-15 17:52:35.410,3
2014-11-15 17:58:24.084,12409,413.6334,40.10477,-88.22192,234.7775,0.19,241.875,6,10,1416095903,0.2431946,0.8216095,-0.3536835,43.97355,24.64479,-15.48062,245.2978,248.3801,10,0.4338937,0.04979845,-0.6976947,0.5961947,0.637117,-1.161069,0.4863549,-0.0769814,-0.6873688,-0.104881,-0.07122103,-0.07337815,172.17.160.76,10.64.29.0,2,unknown,2,2014-11-15 17:58:19.372,8,2014-11-15 17:52:35.410,3
2014-11-15 17:58:24.118,12410,413.6667,40.10476,-88.22193,234.6777,0.17,261.2109,6,10,1416095904,0.2024078,0.9104462,-0.2941132,43.83624,25.12661,-15.01004,247.2078,250.2901,10,0.5556374,0.02152686,-0.7757876,0.5526171,0.5995911,-1.160664,0.561277,0.1873211,-0.7191635,0.1107945,-0.04818685,0.02761921,172.17.160.76,10.64.29.0,2,unknown,2,2014-11-15 17:58:19.372,8,2014-11-15 17:52:35.410,3
2014-11-15 17:58:24.151,12411,413.7,40.10476,-88.22193,234.6777,0.17,261.2109,6,10,1416095904,0.1694489,0.8504944,-0.3905029,42.60051,25.3331,-14.87558,249.4399,252.5222,10,0.474877,-0.2324583,-0.9264916,0.4521665,0.5065971,-1.156927,0.5647248,-0.1656884,-0.8919341,-0.06191813,-0.06786965,-0.007608481,172.17.160.76,10.64.29.0,2,unknown,2,2014-11-15 17:58:19.372,8,2014-11-15 17:52:35.410,3
2014-11-15 17:58:24.184,12412,413.7334,40.10476,-88.22193,234.6777,0.17,261.2109,6,10,1416095904,0.1188965,0.8518066,-0.4043579,41.87966,25.71169,-14.30417,251.7141,254.7964,10,0.4611381,-0.1411955,-0.9429433,0.425875,0.4808006,-1.156448,0.5402628,-0.1658201,-0.9109498,-0.04157213,-0.08957338,-0.006881493,172.17.160.76,10.64.29.0,2,unknown,2,2014-11-15 17:58:19.372,8,2014-11-15 17:52:35.410,3
2014-11-15 17:58:24.218,12413,413.7667,40.10476,-88.22193,234.6777,0.17,261.2109,6,10,1416095904,0.185318,0.8293152,-0.3964386,40.95287,25.88377,-14.00168,254.2773,257.3596,10,0.4554514,-0.1168808,-0.8186006,0.2663246,0.3351001,-1.150006,0.5117508,0.09433915,-0.9349488,0.02966653,-0.09915244,-0.005901338,172.17.160.76,10.64.29.0,2,unknown,2,2014-11-15 17:58:19.372,8,2014-11-15 17:52:35.410,3
2014-11-15 17:58:24.250,12414,413.8,40.10476,-88.22193,234.6777,0.17,261.2109,6,10,1416095904,0.05834961,0.8152771,-0.3660889,39.71713,25.74611,-13.26218,257.5566,260.6389,10,0.3806081,-0.156751,-0.7559028,0.2189509,0.2920371,-1.145222,0.5208361,-0.05024359,-0.803059,0.06645868,-0.08148655,-0.001074647,172.17.160.76,10.64.29.0,2,unknown,2,2014-11-15 17:58:19.372,8,2014-11-15 17:52:35.410,3
2014-11-15 17:58:24.284,12415,413.8333,40.10476,-88.22193,234.6777,0.17,261.2109,6,10,1416095904,0.133606,0.8102112,-0.4062347,39.27089,25.78053,-13.29575,257.6838,260.7661,10,0.2262006,-0.1241006,-0.8039809,0.134788,0.2137668,-1.137335,0.2685389,0.06715174,-0.8917222,-0.04666823,-0.1533975,0.06371386,172.17.160.76,10.64.29.0,2,unknown,2,2014-11-15 17:58:19.372,8,2014-11-15 17:52:35.410,3
2014-11-15 17:58:24.318,12416,413.8667,40.10476,-88.22193,234.6777,0.17,261.2109,6,10,1416095904,-0.005096436,0.7460022,-0.3884125,37.52027,25.9526,-12.8588,260.2616,263.3439,10,0.1921338,-0.1082325,-0.8154461,0.09321239,0.1759289,-1.135371,0.2915846,-0.05746422,-0.7884395,0.05978208,-0.09647962,0.009050475,172.17.160.76,10.64.29.0,2,unknown,2,2014-11-15 17:58:19.372,8,2014-11-15 17:52:35.410,3
2014-11-15 17:58:24.351,12417,413.9,40.10476,-88.22193,234.6777,0.17,261.2109,6,10,1416095904,0.1817932,0.8375092,-0.4241486,36.38751,26.33118,-12.42178,263.2502,266.3325,10,-0.07089282,0.1642441,-0.4882128,0.002312494,0.09381071,-1.132078,-0.01689508,0.1480587,-0.6068118,-0.002345371,-0.2505117,0.01126009,172.17.160.76,10.64.29.0,2,unknown,2,2014-11-15 17:58:19.372,8,2014-11-15 17:52:35.410,3
2014-11-15 17:58:24.385,12418,413.9333,40.10476,-88.22193,234.6777,0.17,261.2109,6,10,1416095904,-0.09187317,0.8779449,-0.4276123,35.52936,27.05392,-12.11917,264.9276,268.0099,10,-0.03882383,-0.2224389,-0.6156241,-0.04275575,0.06024982,-1.132697,0.04678531,-0.01521497,-0.5548361,-0.2520146,0.06619655,-0.0729645,172.17.160.76,10.64.29.0,2,unknown,2,2014-11-15 17:58:19.372,8,2014-11-15 17:52:35.410,3
2014-11-15 17:58:24.418,12419,413.9667,40.10476,-88.22193,234.6777,0.17,261.2109,6,10,1416095904,-0.1296234,0.9324188,-0.4210815,35.22043,27.63899,-12.01834,265.8796,268.9619,10,-0.2842174,-0.03551432,-0.5012037,-0.08344641,0.02040443,-1.135012,-0.1814269,-0.003205043,-0.5263199,0.09789379,-0.2106314,0.07179914,172.17.160.76,10.64.29.0,2,unknown,2,2014-11-15 17:58:19.372,8,2014-11-15 17:52:35.410,3
2014-11-15 17:58:24.450,12420,414,40.10476,-88.22193,234.6777,0.17,261.2109,6,10,1416095904,-0.05674744,0.9500427,-0.4151001,34.22498,28.22407,-12.52255,266.2396,269.3219,10,-0.2942013,-0.1021413,-0.7424736,-0.1222451,-0.01404364,-1.141834,-0.2397085,0.001266001,-0.6417798,-0.1430696,0.09604976,-0.02710637,172.17.160.76,10.64.29.0,2,unknown,2,2014-11-15 17:58:19.372,8,2014-11-15 17:52:35.410,3
2014-11-15 17:58:24.484,12421,414.0334,40.10476,-88.22193,234.6777,0.17,261.2109,6,10,1416095904,0.0428772,0.9262543,-0.4549103,33.36683,28.46499,-12.62344,267.17,270.2523,10,-0.3425952,-0.06167455,-0.5924103,-0.1758536,-0.06388551,-1.148383,-0.2630512,-0.06819923,-0.6961938,0.01874183,-0.01464139,0.0004654114,172.17.160.76,10.64.29.0,2,unknown,2,2014-11-15 17:58:19.372,8,2014-11-15 17:52:35.410,3
2014-11-15 17:58:24.518,12422,414.0667,40.10476,-88.22193,234.6777,0.17,261.2109,6,10,1416095904,0.0425415,0.98349,-0.3497467,32.74896,28.60265,-12.0856,268.1779,271.2603,10,-0.359095,-0.2403114,-0.4690959,-0.2294033,-0.1112105,-1.159098,-0.3191541,-0.03988923,-0.4676161,-0.08753172,0.05244491,-0.08294205,172.17.160.76,10.64.29.0,2,unknown,2,2014-11-15 17:58:19.372,8,2014-11-15 17:52:35.410,3
2014-11-15 17:58:24.551,12423,414.1,40.10476,-88.22193,234.6777,0.17,261.2109,6,10,1416095904,-0.1464844,0.9969177,-0.3232422,31.65053,29.63512,-11.34616,269.8504,272.9327,10,-0.4232953,-0.7677292,-0.5247069,-0.2667641,-0.1554563,-1.167188,-0.3718702,-0.6082274,-0.453428,0.1139545,0.04208107,0.04828148,172.17.160.76,10.64.29.0,2,unknown,2,2014-11-15 17:58:19.372,8,2014-11-15 17:52:35.410,3
2014-11-15 17:58:24.584,12424,414.1334,40.10476,-88.22193,234.6777,0.17,261.2109,6,10,1416095904,0.06065369,0.8491821,-0.259964,30.31182,30.4267,-11.37973,270.5693,273.6516,10,-0.406702,-0.6606541,-0.6972268,-0.2938704,-0.1941358,-1.173014,-0.357915,-0.7010964,-0.5091664,-0.07175254,0.07499548,0.05685586,172.17.160.76,10.64.29.0,2,unknown,2,2014-11-15 17:58:19.372,8,2014-11-15 17:52:35.410,3
2014-11-15 17:58:24.618,12425,414.1667,40.10476,-88.22193,234.6777,0.17,261.2109,6,10,1416095904,0.06336975,0.8905029,-0.355835,29.83125,30.49553,-11.71591,270.2934,273.3757,10,-0.2124105,-0.3936711,-0.365366,-0.3668669,-0.2834001,-1.179647,-0.2986878,-0.3481343,-0.6200419,0.1672598,-0.07528938,0.1060791,172.17.160.76,10.64.29.0,2,unknown,2,2014-11-15 17:58:19.372,8,2014-11-15 17:52:35.410,3
2014-11-15 17:58:24.651,12426,414.2,40.10476,-88.22193,234.6777,0.17,261.2109,6,10,1416095904,-0.1001892,0.7394409,-0.2357178,28.93878,30.83968,-11.91757,270.8286,273.9109,10,-0.110448,-0.306541,-0.217743,-0.4062901,-0.3318713,-1.181412,-0.08561764,-0.2387621,-0.1924867,0.009014807,-0.02559166,-0.02258047,172.17.160.76,10.64.29.0,2,unknown,2,2014-11-15 17:58:19.372,8,2014-11-15 17:52:35.410,3
2014-11-15 17:58:24.684,12427,414.2334,40.10476,-88.22193,234.6777,0.17,261.2109,6,10,1416095904,-0.02891541,0.8809967,-0.1815338,28.62984,30.94294,-11.74942,271.2034,274.2857,10,-0.1490635,-0.3708692,-0.1553097,-0.4167401,-0.3460485,-1.180992,-0.04507954,-0.2399171,-0.202198,0.02870303,-0.1855424,0.1217632,172.17.160.76,10.64.29.0,2,unknown,2,2014-11-15 17:58:19.372,8,2014-11-15 17:52:35.410,3
2014-11-15 17:58:24.718,12428,414.2667,40.10476,-88.22193,234.6777,0.17,261.2109,6,10,1416095904,-0.07913208,0.7180481,-0.2258606,27.909,31.18385,-11.64865,272.5053,275.5876,10,-0.09641735,0.3988515,-0.09519496,-0.4329609,-0.3717297,-1.18197,-0.06988794,-0.155081,-0.08489548,0.02841708,-0.02510132,0.1131589,172.17.160.76,10.64.29.0,2,unknown,2,2014-11-15 17:58:19.372,8,2014-11-15 17:52:35.410,3
2014-11-15 17:58:24.751,12429,414.3,40.10476,-88.22193,234.6777,0.17,261.2109,6,10,1416095904,-0.01704407,0.81987,-0.2985382,28.18361,30.97735,-11.11087,273.1363,276.2186,10,-0.1493368,-0.07848602,0.009699233,-0.4405837,-0.3656774,-1.183358,-0.1071328,0.267413,0.0002643058,0.08077951,-0.1756206,0.03897901,172.17.160.76,10.64.29.0,2,unknown,2,2014-11-15 17:58:19.372,8,2014-11-15 17:52:35.410,3
2014-11-15 17:58:24.784,12430,414.3333,40.10476,-88.22193,234.6777,0.17,261.2109,6,10,1416095904,-0.009231567,0.8129272,-0.2898407,28.25226,31.39034,-10.70743,273.8166,276.8989,10,-0.07113303,0.1856074,-0.04970737,-0.4416678,-0.3682431,-1.184882,-0.01132727,-0.04208402,-0.03250732,0.01966815,-0.1549397,0.1012184,172.17.160.76,10.64.29.0,2,unknown,2,2014-11-15 17:58:19.372,8,2014-11-15 17:52:35.410,3
2014-11-15 17:58:24.818,12431,414.3667,40.10476,-88.22193,234.6777,0.17,261.2109,6,10,1416095904,-0.06358337,0.9438171,-0.263855,28.14928,31.21826,-10.5394,273.9906,277.0729,15,-0.09874415,-0.2303677,0.1626249,-0.4391998,-0.353043,-1.186874,-0.06399787,0.1783315,0.1673476,0.1757705,-0.05946591,0.04735121,172.17.160.76,10.64.29.0,2,unknown,2,2014-11-15 17:58:19.372,8,2014-11-15 17:52:35.410,3
2014-11-15 17:58:24.851,12432,414.4,40.10476,-88.22193,234.6777,0.17,261.2109,6,10,1416095904,-0.0385437,0.8381348,-0.2230377,27.84035,31.80334,-10.70749,274.0999,277.1822,15,-0.1258754,0.2727998,0.0963798,-0.4269,-0.3443089,-1.189598,-0.03418684,-0.0770916,0.1149397,-0.07742459,0.004748652,0.01155973,172.17.160.76,10.64.29.0,2,unknown,2,2014-11-15 17:58:19.372,8,2014-11-15 17:52:35.410,3
2014-11-15 17:58:24.884,12433,414.4333,40.10476,-88.22193,234.6777,0.17,261.2109,6,10,1416095904,-0.08174133,0.963562,-0.3715057,28.08063,31.42476,-10.74118,272.9751,276.0574,15,-0.225529,0.1996018,0.2470979,-0.4230815,-0.3367463,-1.191058,-0.06050951,0.3394212,0.1119242,-0.04010403,-0.08690386,0.08369894,172.17.160.76,10.64.29.0,2,unknown,2,2014-11-15 17:58:19.372,8,2014-11-15 17:52:35.410,3
2014-11-15 17:58:24.918,12434,414.4667,40.10476,-88.22193,234.6777,0.17,261.2109,6,10,1416095904,-0.1820831,0.8514252,-0.3944397,28.32091,31.39035,-10.64029,272.8664,275.9487,15,-0.1956041,0.009900568,0.1738061,-0.4019292,-0.3091283,-1.199086,-0.1029254,-0.02681246,0.2969751,0.0287572,0.03185439,-0.02551297,172.17.160.76,10.64.29.0,2,unknown,2,2014-11-15 17:58:19.372,8,2014-11-15 17:52:35.410,3
2014-11-15 17:58:24.951,12435,414.5,40.10476,-88.22193,234.6777,0.17,261.2109,6,10,1416095904,0.009246826,0.8940887,-0.3022003,28.62985,31.14944,-10.67386,272.042,275.1243,15,-0.2159872,0.05281421,0.2271826,-0.3847878,-0.2894275,-1.20599,-0.1226371,0.194338,0.1729585,0.09072974,-0.09650073,0.08568833,172.17.160.76,10.64.29.0,2,unknown,2,2014-11-15 17:58:19.372,8,2014-11-15 17:52:35.410,3
2014-11-15 17:58:24.984,12436,414.5334,40.10476,-88.22193,234.6777,0.17,261.2109,6,10,1416095904,-0.07495117,0.943634,-0.2948456,28.6985,31.49359,-11.41348,270.6915,273.7738,15,-0.2966138,-0.3468197,0.3485119,-0.3737682,-0.2775526,-1.210454,-0.1881706,-0.03219557,0.282405,0.1058587,-0.04168751,0.0368999,172.17.160.76,10.64.29.0,2,unknown,2,2014-11-15 17:58:19.372,8,2014-11-15 17:52:35.410,3
2014-11-15 17:58:25.018,12437,414.5667,40.10476,-88.22193,234.6777,0.17,261.2109,6,10,1416095904,0.1165619,0.8389282,-0.181427,28.87013,31.32151,-11.51425,270.0178,273.1001,15,-0.4206439,-0.1403736,0.5230851,-0.3312474,-0.246417,-1.227175,-0.3102266,-0.03082525,0.4569522,0.04291911,-0.1533634,0.07455523,172.17.160.76,10.64.29.0,2,unknown,2,2014-11-15 17:58:19.372,8,2014-11-15 17:52:35.410,3
2014-11-15 17:58:25.051,12438,414.6,40.10476,-88.22193,234.6777,0.17,261.2109,6,10,1416095904,-0.02085876,0.7879028,-0.2946167,29.24771,31.21826,-11.68234,268.3487,271.431,15,-0.438376,-0.2717521,0.7135264,-0.2882167,-0.2085326,-1.241461,-0.3694357,-0.1613685,0.6146472,0.1377555,-0.04810989,0.04199369,172.17.160.76,10.64.29.0,2,unknown,2,2014-11-15 17:58:19.372,8,2014-11-15 17:52:35.410,3
2014-11-15 17:58:25.084,12439,414.6334,40.10476,-88.22193,234.6777,0.17,261.2109,6,10,1416095904,-0.04901123,0.8109741,-0.2305908,29.65962,31.01176,-11.48062,267.669,270.7513,15,-0.4864384,0.27357,0.8821692,-0.2215632,-0.1465803,-1.257422,-0.4296565,0.1678596,0.871362,-0.05806366,-0.2170306,-0.01354755,172.17.160.76,10.64.29.0,2,unknown,2,2014-11-15 17:58:19.372,8,2014-11-15 17:52:35.410,3
2014-11-15 17:58:25.118,12440,414.6667,40.10476,-88.22194,234.8576,0.35,141.6797,6,10,1416095905,0.002258301,0.8130035,-0.2835693,30.86103,31.18384,-11.37973,265.884,268.9663,15,-0.3953436,0.1403161,0.6889981,-0.1409846,-0.05986277,-1.271797,-0.328098,0.2799491,0.80576,-0.1110545,-0.03345157,0.04081679,172.17.160.76,10.64.29.0,2,unknown,2,2014-11-15 17:58:19.372,8,2014-11-15 17:52:35.410,3
2014-11-15 17:58:25.151,12441,414.7,40.10476,-88.22194,234.8576,0.35,141.6797,6,10,1416095905,0.05140686,0.9311523,-0.1416168,32.19975,30.4611,-11.21164,263.6819,266.7642,15,-0.5990853,0.4276392,1.157265,-0.02955739,0.05490682,-1.286675,-0.529144,0.171959,0.986396,0.06165818,-0.3307273,0.0009918181,172.17.160.76,10.64.29.0,2,unknown,2,2014-11-15 17:58:19.372,8,2014-11-15 17:52:35.410,3
2014-11-15 17:58:25.184,12442,414.7334,40.10476,-88.22194,234.8576,0.35,141.6797,6,10,1416095905,-0.003570557,1.043091,-0.274292,33.74441,30.22018,-10.84195,261.7103,264.7926,15,-0.3550161,0.3866755,0.8122149,0.09937987,0.1911661,-1.298578,-0.4299861,0.5018986,1.06525,0.0003206889,-0.03202439,0.1223544,172.17.160.76,10.64.29.0,2,unknown,2,2014-11-15 17:58:19.372,8,2014-11-15 17:52:35.410,3
2014-11-15 17:58:25.218,12443,414.7667,40.10476,-88.22194,234.8576,0.35,141.6797,6,10,1416095905,0.2420502,0.4728546,-0.2420807,34.60256,29.70393,-10.60666,260.3776,263.4599,15,-0.5347595,0.1509714,0.9666231,0.1708321,0.2686663,-1.300386,-0.2896546,0.4532925,0.8277582,-0.1720125,0.275215,0.05357982,172.17.160.76,10.64.29.0,2,unknown,2,2014-11-15 17:58:19.372,8,2014-11-15 17:52:35.410,3
2014-11-15 17:58:25.251,12444,414.8,40.10476,-88.22194,234.8576,0.35,141.6797,6,10,1416095905,-0.01452637,1.582397,0.01715088,36.45616,29.4286,-10.06882,258.7943,261.8766,15,-0.4892712,0.4871779,1.168843,0.3991003,0.5073428,-1.303967,-0.6066378,0.5177009,1.318627,0.01982608,-0.118634,0.164452,172.17.160.76,10.64.29.0,2,unknown,2,2014-11-15 17:58:19.372,8,2014-11-15 17:52:35.410,3
2014-11-15 17:58:25.284,12445,414.8333,40.10476,-88.22194,234.8576,0.35,141.6797,6,10,1416095905,0.003646851,0.51651,-0.6414795,37.76055,29.15327,-9.396576,256.1231,259.2054,15,-0.2389953,-0.01482156,0.4158563,0.5057371,0.6238039,-1.296059,-0.1161905,0.3267395,0.5419648,-0.1567458,0.5712711,0.07037298,172.17.160.76,10.64.29.0,2,unknown,2,2014-11-15 17:58:19.372,8,2014-11-15 17:52:35.410,3
2014-11-15 17:58:25.318,12446,414.8667,40.10476,-88.22194,234.8576,0.35,141.6797,6,10,1416095905,0.2757416,1.211029,0.1390991,38.51572,28.60261,-9.127716,255.3715,258.4538,15,-0.5830759,0.4222623,1.149746,0.5872927,0.7035468,-1.292672,-0.6762525,0.1688105,0.9826838,0.060605,-0.7970366,-0.2370047,172.17.160.76,10.64.29.0,2,unknown,2,2014-11-15 17:58:19.372,8,2014-11-15 17:52:35.410,3
2014-11-15 17:58:25.351,12447,414.9,40.10476,-88.22194,234.8576,0.35,141.6797,6,10,1416095905,0.02629089,1.520599,-0.3583527,39.78578,28.15521,-8.825165,253.3676,256.4499,15,-0.04464417,0.1311772,0.3437166,0.7319812,0.8624524,-1.274781,0.0006146164,0.4545197,0.726898,-0.07718883,0.7378294,0.292472,172.17.160.76,10.64.29.0,2,unknown,2,2014-11-15 17:58:19.372,8,2014-11-15 17:52:35.410,3
2014-11-15 17:58:25.384,12448,414.9333,40.10476,-88.22194,234.8576,0.35,141.6797,6,10,1416095905,0.3408051,0.5184021,-0.1018066,41.84534,26.77856,-9.363068,250.2882,253.3705,15,-0.6222625,-0.103745,0.577107,0.764585,0.8954256,-1.268749,-0.3836578,-0.1067094,0.394199,-0.08089667,-0.101931,-0.2488977,172.17.160.76,10.64.29.0,2,unknown,2,2014-11-15 17:58:19.372,8,2014-11-15 17:52:35.410,3
2014-11-15 17:58:25.417,12449,414.9667,40.10476,-88.22194,234.8576,0.35,141.6797,6,10,1416095905,0.340683,1.833099,0.1869812,42.29158,26.46881,-9.463898,249.8917,252.974,15,0.08890777,-0.01015144,0.2097871,0.8676096,0.9964577,-1.252716,-0.09176038,0.176307,0.8860624,0.04667013,0.1169959,0.1092383,172.17.160.76,10.64.29.0,2,unknown,2,2014-11-15 17:58:19.372,8,2014-11-15 17:52:35.410,3
2014-11-15 17:58:25.451,12450,415,40.10476,-88.22194,234.8576,0.35,141.6797,6,10,1416095905,0.3404694,0.3562927,-0.3633728,43.52731,25.43633,-9.800079,245.3434,248.4257,15,-0.3607438,-0.2143621,0.4375526,0.8774287,1.006637,-1.241624,0.08292609,-0.3482653,0.09396467,-0.1571089,0.675104,0.01296723,172.17.160.76,10.64.29.0,2,unknown,2,2014-11-15 17:58:19.372,8,2014-11-15 17:52:35.410,3
2014-11-15 17:58:25.484,12451,415.0334,40.10476,-88.22194,234.8576,0.35,141.6797,6,10,1416095905,0.4086761,0.969986,-0.04017639,43.32135,25.29865,-9.867279,244.4625,247.5448,15,-0.1755029,0.05658844,0.5900776,0.8951575,1.017124,-1.238078,-0.2953858,-0.1477487,0.4530951,-0.04927089,-0.4171277,-0.2110441,172.17.160.76,10.64.29.0,2,unknown,2,2014-11-15 17:58:19.372,8,2014-11-15 17:52:35.410,3
2014-11-15 17:58:25.518,12452,415.0667,40.10476,-88.22194,234.8576,0.35,141.6797,6,10,1416095905,0.2052155,1.237579,-0.2816925,44.66006,25.40191,-10.23703,244.321,247.4033,15,0.2061731,-0.3615236,0.1204561,0.9349723,1.056311,-1.22077,0.2346997,-0.0379269,0.3954298,0.1538628,0.3527811,0.2254037,172.17.160.76,10.64.29.0,2,unknown,2,2014-11-15 17:58:19.372,8,2014-11-15 17:52:35.410,3
2014-11-15 17:58:25.551,12453,415.1,40.10476,-88.22194,234.8576,0.35,141.6797,6,10,1416095905,0.291687,0.6529236,-0.1542053,45.55255,24.98893,-11.11093,241.9579,245.0402,15,-0.1195027,-0.05663425,0.3737909,0.9318826,1.047223,-1.208527,-0.1039345,0.01347031,0.2855127,-0.07831447,-0.3963681,-0.08866304,172.17.160.76,10.64.29.0,2,unknown,2,2014-11-15 17:58:19.372,8,2014-11-15 17:52:35.410,3
2014-11-15 17:58:25.584,12454,415.1334,40.10476,-88.22194,234.8576,0.35,141.6797,6,10,1416095905,0.3876801,1.410843,-0.04859924,46.65098,24.71358,-11.58163,241.2976,244.3799,15,0.1516345,-0.1481532,0.2311166,0.943977,1.058779,-1.201951,0.04490583,0.01548073,0.4208356,0.1499766,-0.03012582,0.1615045,172.17.160.76,10.64.29.0,2,unknown,2,2014-11-15 17:58:19.372,8,2014-11-15 17:52:35.410,3
2014-11-15 17:58:25.617,12455,415.1667,40.10476,-88.22194,234.8576,0.35,141.6797,6,10,1416095905,0.2107391,0.3262177,-0.3769226,46.6853,24.40385,-11.81686,240.5706,243.6529,15,-0.1050447,-0.1922786,0.1405579,0.9390468,1.052196,-1.190275,0.148089,-0.1048753,0.1077446,-0.139953,0.1959033,-0.1235098,172.17.160.76,10.64.29.0,2,unknown,2,2014-11-15 17:58:19.372,8,2014-11-15 17:52:35.410,3
2014-11-15 17:58:25.651,12456,415.2,40.10476,-88.22194,234.8576,0.35,141.6797,6,10,1416095905,0.5194397,1.012543,-0.07495117,47.02856,24.05968,-12.22025,239.9328,243.0151,15,-0.2710331,-0.2595235,0.3722284,0.9585652,1.066419,-1.187183,-0.2895846,-0.1617422,0.2895359,-0.04908787,-0.5741231,-0.08043437,172.17.160.76,10.64.29.0,2,unknown,2,2014-11-15 17:58:19.372,8,2014-11-15 17:52:35.410,3
2014-11-15 17:58:25.684,12457,415.2334,40.10476,-88.22194,234.8576,0.35,141.6797,6,10,1416095905,0.0435791,0.771286,-0.3219299,47.37182,24.05968,-12.28738,239.6342,242.7165,15,-0.1064239,-0.1446528,0.2565154,0.9820126,1.08052,-1.177278,0.06905928,-0.2828029,0.4626999,0.2105255,0.3309509,0.2090689,172.17.160.76,10.64.29.0,2,unknown,2,2014-11-15 17:58:19.372,8,2014-11-15 17:52:35.410,3
2014-11-15 17:58:25.718,12458,415.2667,40.10476,-88.22194,234.8576,0.35,141.6797,6,10,1416095905,0.3789215,0.5255432,-0.1182404,47.7494,23.61227,-13.26224,237.6506,240.7329,15,-0.5337667,-0.1213895,0.2147174,1.005637,1.099851,-1.169329,-0.4117737,0.02040654,0.2007264,-0.2855015,-0.4201834,-0.1275062,172.17.160.76,10.64.29.0,2,unknown,2,2014-11-15 17:58:19.372,8,2014-11-15 17:52:35.410,3
2014-11-15 17:58:25.751,12459,415.3,40.10476,-88.22194,234.8576,0.35,141.6797,6,10,1416095905,0.3262939,1.163422,-0.2136383,48.43592,23.74994,-13.53116,236.5716,239.6539,15,-0.3482789,-0.2289887,0.1890421,1.045024,1.134559,-1.169169,-0.4122382,-0.1583506,0.3091194,0.1120327,-0.1820381,0.02043004,172.17.160.76,10.64.29.0,2,unknown,2,2014-11-15 17:58:19.372,8,2014-11-15 17:52:35.410,3
2014-11-15 17:58:25.784,12460,415.3333,40.10476,-88.22194,234.8576,0.35,141.6797,6,10,1416095905,0.04847717,0.357605,-0.5925446,49.01947,23.64668,-14.43869,234.4657,237.548,15,-0.4799219,-0.01418133,0.06222689,1.064757,1.149596,-1.166762,-0.282934,-0.162386,0.2045887,0.1411219,0.3081788,0.07793996,172.17.160.76,10.64.29.0,2,unknown,2,2014-11-15 17:58:19.372,8,2014-11-15 17:52:35.410,3
2014-11-15 17:58:25.818,12461,415.3667,40.10476,-88.22194,234.8576,0.35,141.6797,6,10,1416095905,0.6707306,1.130737,0.01760864,49.25975,23.8876,-14.53958,233.9132,236.9955,15,-0.5173665,-0.2027949,0.4116629,1.115374,1.19517,-1.168964,-0.7052402,-0.13307,0.2615213,-0.3153595,-0.5627409,-0.4490654,172.17.160.76,10.64.29.0,2,unknown,2,2014-11-15 17:58:19.372,8,2014-11-15 17:52:35.410,3
2014-11-15 17:58:25.851,12462,415.4,40.10476,-88.22194,234.8576,0.35,141.6797,6,10,1416095905,0.09457397,0.7324066,-0.3777466,49.77464,24.40385,-15.11099,232.0067,235.089,15,-0.3149497,-0.1658324,0.1117617,1.160231,1.231795,-1.163586,-0.2748084,-0.1262549,0.3469869,0.2661086,0.4458151,0.1384029,172.17.160.76,10.64.29.0,2,unknown,2,2014-11-15 17:58:19.372,8,2014-11-15 17:52:35.410,3
2014-11-15 17:58:25.884,12463,415.4333,40.10476,-88.22194,234.8576,0.35,141.6797,6,10,1416095905,0.3515015,0.7776642,-0.09381104,50.32385,24.61035,-15.71597,230.7179,233.8002,15,-0.8747552,-0.2812884,0.1249262,1.198919,1.263194,-1.162614,-0.674849,0.0007619337,0.1156275,-0.3149863,-0.4344453,-0.4754733,172.17.160.76,10.64.29.0,2,unknown,2,2014-11-15 17:58:19.372,8,2014-11-15 17:52:35.410,3
2014-11-15 17:58:25.918,12464,415.4667,40.10476,-88.22194,234.8576,0.35,141.6797,6,10,1416095905,0.4805603,1.170715,-0.263443,51.182,24.92011,-16.62363,228.907,231.9893,15,-0.3293689,-0.2384174,-0.0743259,1.265654,1.317478,-1.16652,-0.3983868,-0.131203,-0.03577169,0.3176405,0.249085,0.1384372,172.17.160.76,10.64.29.0,2,unknown,2,2014-11-15 17:58:19.372,8,2014-11-15 17:52:35.410,3
2014-11-15 17:58:25.951,12465,415.5,40.10476,-88.22194,234.8576,0.35,141.6797,6,10,1416095905,0.2167206,0.8011322,-0.2710724,51.90285,24.8857,-18.2706,226.2137,229.296,15,-0.3917334,-0.07842903,0.1432924,1.286152,1.332751,-1.167626,-0.2794746,-0.05446018,0.144639,-0.05261385,0.09800051,-0.2438351,172.17.160.76,10.64.29.0,2,unknown,2,2014-11-15 17:58:19.372,8,2014-11-15 17:52:35.410,3
2014-11-15 17:58:25.984,12466,415.5334,40.10476,-88.22194,234.8576,0.35,141.6797,6,10,1416095905,0.6260223,1.075119,-0.04006958,51.73122,25.19544,-18.97647,225.1476,228.2299,15,-0.253122,-0.2265354,0.09741125,1.314268,1.354077,-1.164496,-0.3321075,-0.3078848,0.2114363,-0.06275719,-0.03354897,-0.02611791,172.17.160.76,10.64.29.0,2,unknown,2,2014-11-15 17:58:19.372,8,2014-11-15 17:52:35.410,3
2014-11-15 17:58:26.018,12467,415.5667,40.10476,-88.22194,234.8576,0.35,141.6797,6,10,1416095905,0.2854309,1.069748,-0.1399994,51.73121,25.47078,-20.05209,224.3762,227.4585,15,-0.4181142,-0.60394,-0.08016434,1.335214,1.364963,-1.162667,-0.1457701,-0.1919148,-0.03916059,0.1516153,0.2273074,0.09411882,172.17.160.76,10.64.29.0,2,unknown,2,2014-11-15 17:58:19.372,8,2014-11-15 17:52:35.410,3
2014-11-15 17:58:26.074,12468,415.6,40.10476,-88.22194,234.8576,0.35,141.6797,6,10,1416095905,0.420166,0.9100189,-0.1275787,51.28498,25.22987,-21.43021,222.2376,225.3199,15,-0.4823408,-0.7150337,-0.02106587,1.340263,1.366604,-1.163659,-0.2428315,-0.3429156,-0.06082198,-0.004592093,0.24025,-0.03892129,172.17.160.76,10.64.29.0,2,unknown,2,2014-11-15 17:58:19.372,8,2014-11-15 17:52:35.410,3
2014-11-15 17:58:26.109,12469,415.6334,40.10476,-88.22194,234.8576,0.35,141.6797,6,10,1416095905,0.3510742,0.8966064,-0.1592102,51.11335,24.98895,-22.60666,220.6284,223.7107,15,-0.1725702,-0.6288863,0.1501879,1.395659,1.381027,-1.164869,-0.1312619,-0.1695928,0.1042024,0.1098069,0.1697034,-0.005424698,172.17.160.76,10.64.29.0,2,unknown,2,2014-11-15 17:58:19.372,8,2014-11-15 17:52:35.410,3
2014-11-15 17:58:26.122,12470,415.6667,40.10476,-88.22194,234.8576,0.35,141.6797,6,10,1416095905,0.3510742,0.8966064,-0.1592102,51.11335,24.98895,-22.60666,220.6284,223.7107,15,-0.1725702,-0.6288863,0.1501879,1.395659,1.381027,-1.164869,-0.1312619,-0.1695928,0.1042024,0.1098069,0.1697034,-0.005424698,172.17.160.76,10.64.29.0,2,unknown,2,2014-11-15 17:58:19.372,8,2014-11-15 17:52:35.410,3
2014-11-15 17:58:26.151,12471,415.7,40.10476,-88.22195,234.9729,0.41,169.8047,6,10,1416095906,0.4544678,1.085236,0.0001220703,51.11335,24.92012,-25.69907,215.176,218.2583,15,0.127485,-0.3502749,0.05712108,1.403065,1.359589,-1.156963,0.1860808,-0.520211,0.1277047,0.2195147,0.1358057,0.201458,172.17.160.76,10.64.29.0,2,unknown,2,2014-11-15 17:58:19.372,8,2014-11-15 17:52:35.410,3
2014-11-15 17:58:26.184,12472,415.7334,40.10476,-88.22195,234.9729,0.41,169.8047,6,10,1416095906,0.222702,0.7835236,-0.08328247,50.63279,24.71362,-27.58139,212.728,215.8103,15,-0.09168624,-0.5939882,-0.1492691,1.395437,1.346842,-1.155141,0.1184197,-0.2469288,0.009449575,-0.07488837,0.06511322,0.02714567,172.17.160.76,10.64.29.0,2,unknown,2,2014-11-15 17:58:19.372,8,2014-11-15 17:52:35.410,3
2014-11-15 17:58:26.218,12473,415.7667,40.10476,-88.22195,234.9729,0.41,169.8047,6,10,1416095906,0.4501495,0.9742126,0.05986023,49.98059,24.6792,-28.0856,211.9083,214.9906,15,-0.1774997,-0.704943,-0.3554596,1.395064,1.324932,-1.160891,-0.09859917,-0.7270365,-0.2640055,-0.01881654,-0.0424789,0.1005382,172.17.160.76,10.64.29.0,2,unknown,2,2014-11-15 17:58:19.372,8,2014-11-15 17:52:35.410,3
2014-11-15 17:58:26.251,12474,415.8,40.10476,-88.22195,234.9729,0.41,169.8047,6,10,1416095906,0.4139404,0.9293518,-0.1117706,49.80896,24.43828,-28.72421,211.871,214.9534,15,-0.07160068,-0.1171695,-0.3251624,1.39572,1.311365,-1.17094,-0.06073446,-0.1876217,-0.310135,0.04575372,0.06774399,0.09725453,172.17.160.76,10.64.29.0,2,unknown,2,2014-11-15 17:58:19.372,8,2014-11-15 17:52:35.410,3
2014-11-15 17:58:26.284,12475,415.8333,40.10476,-88.22195,234.9729,0.41,169.8047,6,10,1416095906,0.5120087,1.216614,-0.02456665,49.67166,24.71362,-29.26193,211.2935,214.3758,15,0.1447974,-0.6538034,-0.4582994,1.388977,1.303056,-1.17898,0.06814542,-0.1299145,-0.2583012,-0.01277863,0.003151346,-0.1310924,172.17.160.76,10.64.29.0,2,unknown,2,2014-11-15 17:58:19.372,8,2014-11-15 17:52:35.410,3
2014-11-15 17:58:26.318,12476,415.8667,40.10476,-88.22195,234.9729,0.41,169.8047,6,10,1416095906,0.6767731,1.446671,0.3835297,49.39705,25.12661,-30.0015,211.0951,214.1774,15,0.5364413,-0.2302207,-0.4840724,1.358484,1.262559,-1.184972,0.1449407,-0.2993223,-0.314678,0.1001225,-0.1260733,-0.1514563,172.17.160.76,10.64.29.0,2,unknown,2,2014-11-15 17:58:19.372,8,2014-11-15 17:52:35.410,3
2014-11-15 17:58:26.351,12477,415.9,40.10476,-88.22195,234.9729,0.41,169.8047,6,10,1416095906,-0.001556396,0.6284485,-0.510498,48.74486,25.16103,-30.90903,210.8022,213.8845,15,0.03688372,-0.02077479,-0.2167898,1.290508,1.195003,-1.189833,0.4700632,-0.09182265,-0.2542984,0.1353938,-0.03693422,0.1848914,172.17.160.76,10.64.29.0,2,unknown,2,2014-11-15 17:58:19.372,8,2014-11-15 17:52:35.410,3
2014-11-15 17:58:26.384,12478,415.9333,40.10476,-88.22195,234.9729,0.41,169.8047,6,10,1416095906,0.3900604,0.9274292,-0.2144165,47.95536,24.50713,-31.41324,211.1086,214.1909,15,0.1407121,-0.08362379,-0.372486,1.269227,1.175882,-1.192956,0.213422,-0.01680927,-0.3272462,-0.1514471,0.06678291,0.159083,172.17.160.76,10.64.29.0,2,unknown,2,2014-11-15 17:58:19.372,8,2014-11-15 17:52:35.410,3
2014-11-15 17:58:26.418,12479,415.9667,40.10476,-88.22195,234.9729,0.41,169.8047,6,10,1416095906,0.3829956,1.148056,-0.0316925,48.12699,24.54153,-31.17795,211.7812,214.8635,15,-0.09209397,-0.1357269,-0.2508796,1.24192,1.150334,-1.200218,0.05961275,-0.06922394,-0.2420278,-0.05392354,0.105556,-0.1750508,172.17.160.76,10.64.29.0,2,unknown,2,2014-11-15 17:58:19.372,8,2014-11-15 17:52:35.410,3
2014-11-15 17:58:26.452,12480,416,40.10476,-88.22195,234.9729,0.41,169.8047,6,10,1416095906,0.2920685,1.021378,-0.3587494,47.78373,25.09219,-31.44687,212.5267,215.609,15,-0.1279444,-0.132969,-0.02781965,1.230582,1.136073,-1.209363,-0.03472639,-0.02208772,-0.05566718,-0.1225277,-0.024777,-0.2581302,172.17.160.76,10.64.29.0,2,unknown,2,2014-11-15 17:58:19.372,8,2014-11-15 17:52:35.410,3
2014-11-15 17:58:26.485,12481,416.0334,40.10476,-88.22195,234.9729,0.41,169.8047,6,10,1416095906,0.5657806,1.102097,-0.09687805,47.88671,25.3331,-31.21158,213.1355,216.2178,15,0.2100033,-0.1810587,-0.04313762,1.231053,1.135351,-1.209661,0.07489093,-0.06213021,-0.004275959,0.1534828,0.2567338,0.1036627,172.17.160.76,10.64.29.0,2,unknown,2,2014-11-15 17:58:19.372,8,2014-11-15 17:52:35.410,3
2014-11-15 17:58:26.518,12482,416.0667,40.10476,-88.22195,234.9729,0.41,169.8047,6,10,1416095906,0.2743073,0.9568481,-0.1492004,47.81806,25.19544,-31.27884,214.9449,218.0273,15,0.06894498,-0.08539426,0.09376404,1.205867,1.108626,-1.203483,0.175735,-0.02277721,0.1484069,-0.2240369,0.001137313,-0.2974875,172.17.160.76,10.64.29.0,2,unknown,2,2014-11-15 17:58:19.372,8,2014-11-15 17:52:35.410,3
2014-11-15 17:58:26.551,12483,416.1,40.10476,-88.22195,234.9729,0.41,169.8047,6,10,1416095906,0.4016266,1.00943,-0.2059174,47.98969,24.61037,-30.77463,215.8339,218.9162,15,0.2493837,0.1427193,0.0603222,1.195239,1.099832,-1.198793,0.273169,0.1262257,0.04586289,0.0863524,0.04783015,0.1714594,172.17.160.76,10.64.29.0,2,unknown,2,2014-11-15 17:58:19.372,8,2014-11-15 17:52:35.410,3
2014-11-15 17:58:26.585,12484,416.1334,40.10476,-88.22195,234.9729,0.41,169.8047,6,10,1416095906,0.480484,1.149994,-0.04716492,47.95536,24.2318,-30.20316,216.4852,219.5675,15,0.2651502,0.1805336,0.1443194,1.182252,1.091819,-1.194413,0.3177965,0.2159969,0.1172878,0.07542957,0.07943001,-0.03651948,172.17.160.76,10.64.29.0,2,unknown,2,2014-11-15 17:58:19.372,8,2014-11-15 17:52:35.410,3
2014-11-15 17:58:26.618,12485,416.1667,40.10476,-88.22195,234.9729,0.41,169.8047,6,10,1416095906,0.319397,0.972168,-0.2105408,47.98969,23.71557,-29.29562,217.4614,220.5437,15,0.1156392,0.2366224,0.2460154,1.156047,1.080996,-1.176798,0.3056019,0.3832161,0.3114088,-0.0789678,-0.1029014,-0.09850094,172.17.160.76,10.64.29.0,2,unknown,2,2014-11-15 17:58:19.372,8,2014-11-15 17:52:35.410,3
2014-11-15 17:58:26.651,12486,416.2,40.10476,-88.22195,234.9729,0.41,169.8047,6,10,1416095906,0.2736969,1.015396,-0.07203674,48.02401,23.40582,-27.98471,218.3473,221.4296,15,-0.08462487,-0.2161214,0.07985143,1.151638,1.086989,-1.167125,0.1374431,0.2356861,0.1817607,0.08339013,0.1335367,0.1219505,172.17.160.76,10.64.29.0,2,unknown,2,2014-11-15 17:58:19.372,8,2014-11-15 17:52:35.410,3
2014-11-15 17:58:26.685,12487,416.2334,40.10476,-88.22195,234.9729,0.41,169.8047,6,10,1416095906,0.1716766,0.8992462,-0.3432617,48.19564,23.30257,-27.41324,218.6701,221.7524,10,-0.3876721,0.1073163,0.2578339,1.156981,1.090074,-1.16378,-0.1807107,-0.2101205,0.2241251,-0.07730663,0.09709,0.1110217,172.17.160.76,10.64.29.0,2,unknown,2,2014-11-15 17:58:19.372,8,2014-11-15 17:52:35.410,3
2014-11-15 17:58:26.717,12488,416.2667,40.10476,-88.22195,234.9729,0.41,169.8047,6,10,1416095906,0.4685059,1.036758,-0.2121429,48.77919,23.06165,-26.30411,219.6772,222.7595,10,-0.06879771,0.5326929,0.3246918,1.186474,1.120089,-1.160078,-0.2295136,0.3854875,0.297502,0.07375424,-0.0161536,0.02015944,172.17.160.76,10.64.29.0,2,unknown,2,2014-11-15 17:58:19.372,8,2014-11-15 17:52:35.410,3
2014-11-15 17:58:26.751,12489,416.3,40.10476,-88.22195,234.9729,0.41,169.8047,6,10,1416095906,0.3569336,0.8937683,-0.3419189,49.53436,22.85516,-24.48898,222.0826,225.1649,10,0.1319165,0.2598553,0.5103858,1.200076,1.153102,-1.147119,0.1623793,0.3618498,0.4285952,0.08922566,0.2331922,-0.07631696,172.17.160.76,10.64.29.0,2,unknown,2,2014-11-15 17:58:19.372,8,2014-11-15 17:52:35.410,3
2014-11-15 17:58:26.784,12490,416.3333,40.10476,-88.22195,234.9729,0.41,169.8047,6,10,1416095906,0.4606476,0.9498749,-0.104599,49.84328,22.68308,-23.98477,222.126,225.2083,10,0.1992383,0.472342,0.5112526,1.202759,1.171391,-1.122742,0.246283,0.5648679,0.5843263,-0.003378932,-0.05664146,-0.03182342,172.17.160.76,10.64.29.0,2,unknown,2,2014-11-15 17:58:19.372,8,2014-11-15 17:52:35.410,3
2014-11-15 17:58:26.818,12491,416.3667,40.10476,-88.22195,234.9729,0.41,169.8047,6,10,1416095906,0.3138885,0.8999023,-0.07974243,50.22087,22.3045,-22.13614,223.0968,226.1792,10,-0.1877315,-0.4281431,0.2797411,1.201832,1.17922,-1.108938,0.059023,-0.1471094,0.2819403,0.008862729,0.2113107,0.2686986,172.17.160.76,10.64.29.0,2,unknown,2,2014-11-15 17:58:19.372,8,2014-11-15 17:52:35.410,3
2014-11-15 17:58:26.851,12492,416.4,40.10476,-88.22195,234.9729,0.41,169.8047,6,10,1416095906,0.404953,0.868576,-0.2342529,50.3925,22.06358,-20.75803,223.5805,226.6628,10,-0.4315077,0.1896299,0.321059,1.22377,1.192241,-1.102973,-0.3802139,0.03733113,0.3365688,-0.1385765,-0.08676565,-0.09856879,172.17.160.76,10.64.29.0,2,unknown,2,2014-11-15 17:58:19.372,8,2014-11-15 17:52:35.410,3
2014-11-15 17:58:26.884,12493,416.4333,40.10476,-88.22195,234.9729,0.41,169.8047,6,10,1416095906,0.5093994,0.9479828,-0.2671204,50.32385,21.78826,-19.54788,224.4778,227.5601,10,-0.09138637,0.3245461,0.338541,1.249493,1.224502,-1.096883,-0.1432286,0.4324443,0.3303316,0.08857274,0.0435909,-0.02642093,172.17.160.76,10.64.29.0,2,unknown,2,2014-11-15 17:58:19.372,8,2014-11-15 17:52:35.410,3
2014-11-15 17:58:26.918,12494,416.4667,40.10476,-88.22195,234.9729,0.41,169.8047,6,10,1416095906,0.3978729,0.8638153,-0.1329803,50.63279,21.40969,-18.03537,224.8524,227.9348,10,0.1867715,0.2415801,0.3444929,1.253741,1.241446,-1.080004,0.2186412,0.2889553,0.4885046,0.01802725,0.04405052,-0.1590225,172.17.160.76,10.64.29.0,2,unknown,2,2014-11-15 17:58:19.372,8,2014-11-15 17:52:35.410,3
2014-11-15 17:58:26.951,12495,416.5,40.10476,-88.22195,234.9729,0.41,169.8047,6,10,1416095906,0.4293518,0.8885345,-0.05172729,51.31931,20.58371,-17.02701,227.3194,230.4017,10,-0.04820774,-0.1718538,0.03430444,1.249752,1.244028,-1.070165,0.2520908,0.3081612,0.3600411,-0.0567081,-0.01346452,0.02108519,172.17.160.76,10.64.29.0,2,unknown,2,2014-11-15 17:58:19.372,8,2014-11-15 17:52:35.410,3
2014-11-15 17:58:26.984,12496,416.5334,40.10476,-88.22195,234.9729,0.41,169.8047,6,10,1416095906,0.3590393,0.8292847,-0.3724213,51.49094,20.54929,-16.85898,227.7931,230.8754,10,-0.08643742,-0.0338083,0.02031379,1.249057,1.240595,-1.06692,-0.06067161,-0.2607656,-0.002687688,-0.02738826,0.01281689,0.1048201,172.17.160.76,10.64.29.0,2,unknown,2,2014-11-15 17:58:19.372,8,2014-11-15 17:52:35.410,3
2014-11-15 17:58:27.018,12497,416.5667,40.10476,-88.22195,234.9729,0.41,169.8047,6,10,1416095906,0.4279938,0.8920135,-0.2501526,51.69689,20.75579,-15.91782,228.862,231.9443,10,0.1078889,0.1260922,-0.04007631,1.25077,1.24221,-1.065691,0.04277763,0.1862098,0.09693493,-0.08838157,-0.09153906,-0.1812302,172.17.160.76,10.64.29.0,2,unknown,2,2014-11-15 17:58:19.372,8,2014-11-15 17:52:35.410,3
2014-11-15 17:58:27.051,12498,416.6,40.10476,-88.22195,234.9729,0.41,169.8047,6,10,1416095906,0.5011597,0.8592377,-0.1590576,51.45661,21.20321,-14.53964,231.2552,234.3375,10,0.1770041,-0.06086442,-0.02858184,1.238058,1.237297,-1.063851,0.2050936,-0.06154565,-0.05783107,0.006756522,-0.06426472,-0.08609372,172.17.160.76,10.64.29.0,2,unknown,2,2014-11-15 17:58:19.372,8,2014-11-15 17:52:35.410,3
2014-11-15 17:58:27.083,12499,416.6334,40.10476,-88.22195,234.9729,0.41,169.8047,6,10,1416095906,0.3216553,0.8450012,-0.1571503,51.52526,21.20321,-14.27072,231.6857,234.768,10,0.05067303,0.03581579,-0.1793916,1.228703,1.229848,-1.062415,0.2338019,0.1238676,0.01415704,0.04241464,-0.01429577,0.003707028,172.17.160.76,10.64.29.0,2,unknown,2,2014-11-15 17:58:19.372,8,2014-11-15 17:52:35.410,3
2014-11-15 17:58:27.118,12500,416.6667,40.10476,-88.22195,234.69,0,171.9141,6,10,1416095907,0.5097198,0.8708038,-0.3209381,50.66711,21.16879,-13.56491,232.7093,235.7916,10,0.1317745,0.1345813,-0.1812982,1.214049,1.219053,-1.069341,0.076703,0.04772611,-0.2297967,0.02042466,-0.0814586,-0.1067965,172.17.160.76,10.64.29.0,2,unknown,2,2014-11-15 17:58:19.372,8,2014-11-15 17:52:35.410,3
2014-11-15 17:58:27.151,12501,416.7,40.10476,-88.22195,234.69,0,171.9141,6,10,1416095907,0.4048615,0.8376923,-0.04588318,49.91194,21.16879,-13.29599,233.4636,236.5459,10,0.1896344,0.0167156,-0.3084518,1.195523,1.210397,-1.071957,0.3018538,0.278102,-0.2421645,0.009664534,-0.01014221,-0.05741081,172.17.160.76,10.64.29.0,2,unknown,2,2014-11-15 17:58:19.372,8,2014-11-15 17:52:35.410,3
2014-11-15 17:58:27.184,12502,416.7334,40.10476,-88.22195,234.69,0,171.9141,6,10,1416095907,0.4871979,0.8504333,-0.2970886,49.50003,21.30646,-12.22037,235.3499,238.4323,10,0.3310109,0.6042632,-0.02353302,1.170695,1.192888,-1.077219,0.2630275,0.2536888,-0.09990916,0.0538834,-0.006421724,-0.09801314,172.17.160.76,10.64.29.0,2,unknown,2,2014-11-15 17:58:19.372,8,2014-11-15 17:52:35.410,3
2014-11-15 17:58:27.218,12503,416.7667,40.10476,-88.22195,234.69,0,171.9141,6,10,1416095907,0.3699951,0.8297272,-0.05769348,49.63734,21.23763,-12.01877,236.0773,239.1596,10,0.1757172,-0.09491453,-0.3174794,1.147705,1.189508,-1.074093,0.4104675,0.5434414,-0.1339644,-0.07927089,-0.07082412,-0.03939595,172.17.160.76,10.64.29.0,2,unknown,2,2014-11-15 17:58:19.372,8,2014-11-15 17:52:35.410,3
2014-11-15 17:58:27.252,12504,416.8,40.10476,-88.22195,234.69,0,171.9141,6,10,1416095907,0.4036407,0.8402405,-0.2639008,49.50003,21.1688,-11.27921,237.5806,240.6629,10,0.09948824,-0.09991807,-0.1399528,1.131539,1.178828,-1.076692,0.2410327,-0.02833743,-0.3019322,-0.06828085,-0.05066679,0.1234712,172.17.160.76,10.64.29.0,2,unknown,2,2014-11-15 17:58:19.372,8,2014-11-15 17:52:35.410,3
2014-11-15 17:58:27.284,12505,416.8333,40.10476,-88.22195,234.69,0,171.9141,6,10,1416095907,0.3616943,0.8270721,-0.09378052,49.50003,20.82463,-11.48093,237.6927,240.775,10,0.118169,0.2712882,-0.230417,1.113644,1.166876,-1.078889,0.1777453,0.4421542,-0.05295392,-0.03065896,-0.04119328,-0.07827131,172.17.160.76,10.64.29.0,2,unknown,2,2014-11-15 17:58:19.372,8,2014-11-15 17:52:35.410,3
2014-11-15 17:58:27.318,12506,416.8667,40.10476,-88.22195,234.69,0,171.9141,6,10,1416095907,0.4966583,0.9729462,-0.2261505,49.12244,21.20321,-11.3129,238.4015,241.4838,10,0.1195309,-0.3612882,-0.1360969,1.099522,1.164086,-1.081973,0.1534946,-0.008832377,-0.2569197,0.1380237,0.03274809,0.1741673,172.17.160.76,10.64.29.0,2,unknown,2,2014-11-15 17:58:19.372,8,2014-11-15 17:52:35.410,3
2014-11-15 17:58:27.351,12507,416.9,40.10476,-88.22195,234.69,0,171.9141,6,10,1416095907,0.2113647,0.6988068,-0.1971283,48.77919,21.40971,-11.11124,238.6339,241.7162,10,0.112285,0.2673521,-0.04784076,1.080298,1.141186,-1.082711,0.2295915,0.1875981,0.0113231,-0.02324639,-0.06711596,-0.1573262,172.17.160.76,10.64.29.0,2,unknown,2,2014-11-15 17:58:19.372,8,2014-11-15 17:52:35.410,3
2014-11-15 17:58:27.384,12508,416.9333,40.10476,-88.22195,234.69,0,171.9141,6,10,1416095907,0.6074066,1.015289,-0.08840942,48.71053,21.61621,-10.57346,239.6042,242.6865,10,-0.01659362,-0.4823485,-0.2763402,1.064195,1.127738,-1.087128,0.05529112,-0.4172787,-0.3192075,0.08797339,0.1266681,0.2005509,172.17.160.76,10.64.29.0,2,unknown,2,2014-11-15 17:58:19.372,8,2014-11-15 17:52:35.410,3
2014-11-15 17:58:27.418,12509,416.9667,40.10476,-88.22195,234.69,0,171.9141,6,10,1416095907,0.3961792,0.6093903,0.05952454,47.92104,21.71947,-10.74155,240.1859,243.2682,10,-0.02885588,-0.1131881,-0.3582074,1.056153,1.111143,-1.093044,0.01675106,-0.1805156,-0.2052994,0.003740247,-0.01843211,0.05106948,172.17.160.76,10.64.29.0,2,unknown,2,2014-11-15 17:58:19.372,8,2014-11-15 17:52:35.410,3
2014-11-15 17:58:27.450,12510,417,40.10476,-88.22195,234.69,0,171.9141,6,10,1416095907,0.6540833,0.864502,-0.2512054,47.30317,21.9948,-11.21207,240.3678,243.4501,10,-0.03039359,-0.2083577,-0.5794911,1.048674,1.102863,-1.099658,-0.01864201,-0.1059798,-0.4690835,-0.008928641,-0.2816618,0.2642533,172.17.160.76,10.64.29.0,2,unknown,2,2014-11-15 17:58:19.372,8,2014-11-15 17:52:35.410,3
2014-11-15 17:58:27.484,12511,417.0334,40.10476,-88.22195,234.69,0,171.9141,6,10,1416095907,0.3179779,0.9177246,-0.09307861,46.75395,21.92597,-11.41379,240.4213,243.5036,10,-0.01024065,-0.4125151,-0.5976253,1.021574,1.06957,-1.11765,0.09647393,-0.3433974,-0.5238389,0.1431092,0.1602214,-0.01560592,172.17.160.76,10.64.29.0,2,unknown,2,2014-11-15 17:58:19.372,8,2014-11-15 17:52:35.410,3
2014-11-15 17:58:27.518,12512,417.0667,40.10476,-88.22195,234.69,0,171.9141,6,10,1416095907,0.4438171,0.9373627,-0.3790131,46.06743,22.40779,-11.27927,241.8731,244.9554,10,0.03369485,-0.1064998,-0.5951169,0.9943147,1.03306,-1.139852,-0.1162966,-0.2571008,-0.6478428,-0.09493564,-0.1235984,-0.05484083,172.17.160.76,10.64.29.0,2,unknown,2,2014-11-15 17:58:19.372,8,2014-11-15 17:52:35.410,3
2014-11-15 17:58:27.551,12513,417.1,40.10476,-88.22195,234.69,0,171.9141,6,10,1416095907,0.3594208,0.9460754,-0.2518005,45.31226,22.82079,-10.94315,243.6827,246.765,10,0.4424469,0.09125162,-0.6953855,0.9671892,1.005893,-1.154371,0.251645,0.06171909,-0.6178203,0.06780227,0.05996201,-0.1269204,172.17.160.76,10.64.29.0,2,unknown,2,2014-11-15 17:58:19.372,8,2014-11-15 17:52:35.410,3
2014-11-15 17:58:27.584,12514,417.1334,40.10476,-88.22195,234.69,0,171.9141,6,10,1416095907,0.4108429,0.9484558,-0.05834961,45.00333,23.19937,-10.57339,246.2076,249.2899,10,0.1795738,-0.03268604,-0.5199092,0.9119407,0.9596567,-1.163552,0.4191908,0.1995975,-0.6410742,0.03503301,0.02785963,-0.02452911,172.17.160.76,10.64.29.0,2,unknown,2,2014-11-15 17:58:19.372,8,2014-11-15 17:52:35.410,3
2014-11-15 17:58:27.618,12515,417.1667,40.10476,-88.22195,234.69,0,171.9141,6,10,1416095907,0.2752838,0.9865723,-0.4008636,44.00787,23.71561,-10.80869,248.0131,251.0954,10,-0.01961312,-0.3811277,-0.6632369,0.871288,0.9230473,-1.172101,0.1499423,-0.2235436,-0.548884,-0.03153477,0.06288283,0.2212005,172.17.160.76,10.64.29.0,2,unknown,2,2014-11-15 17:58:19.372,8,2014-11-15 17:52:35.410,3
2014-11-15 17:58:27.652,12516,417.2,40.10476,-88.22195,234.69,0,171.9141,6,10,1416095907,0.3180847,0.9256744,-0.3047028,43.49299,23.81887,-10.70779,248.8533,251.9356,10,0.2257173,0.1017381,-0.5862475,0.8364452,0.8821264,-1.185635,0.07355165,-0.1712198,-0.6597728,-0.01479798,0.05983452,-0.1620966,172.17.160.76,10.64.29.0,2,unknown,2,2014-11-15 17:58:19.372,8,2014-11-15 17:52:35.410,3
2014-11-15 17:58:27.684,12517,417.2334,40.10476,-88.22195,234.69,0,171.9141,6,10,1416095907,0.2801514,0.9513855,-0.295166,42.36023,24.61044,-10.94308,249.9543,253.0367,10,0.2470122,0.06666159,-0.586512,0.7719228,0.8281111,-1.195855,0.3604037,0.2478845,-0.5811518,-0.09820684,-0.0341514,-0.04237719,172.17.160.76,10.64.29.0,2,unknown,2,2014-11-15 17:58:19.372,8,2014-11-15 17:52:35.410,3
2014-11-15 17:58:27.718,12518,417.2667,40.10476,-88.22195,234.69,0,171.9141,6,10,1416095907,0.1596527,0.8636017,-0.09031677,41.87967,24.88577,-10.4725,252.049,255.1313,10,0.05254683,-0.1844468,-0.503249,0.7081951,0.7684549,-1.203695,0.223387,-0.1307094,-0.4913451,0.06597748,0.03276898,0.04386418,172.17.160.76,10.64.29.0,2,unknown,2,2014-11-15 17:58:19.372,8,2014-11-15 17:52:35.410,3
2014-11-15 17:58:27.751,12519,417.3,40.10476,-88.22195,234.69,0,171.9141,6,10,1416095907,0.1762543,1.111954,-0.1973267,40.74691,25.26435,-10.64059,253.309,256.3913,10,-0.2733578,-0.494859,-0.6841152,0.672924,0.7302068,-1.214264,-0.1323805,-0.2920312,-0.6299167,-0.09612085,0.02855494,0.1891911,172.17.160.76,10.64.29.0,2,unknown,2,2014-11-15 17:58:19.372,8,2014-11-15 17:52:35.410,3
2014-11-15 17:58:27.784,12520,417.3333,40.10476,-88.22195,234.69,0,171.9141,6,10,1416095907,0.08935547,0.7954102,-0.4142456,40.16337,25.43643,-10.60696,253.9537,257.036,10,-0.1242168,-0.3232636,-0.6052204,0.6410375,0.6867906,-1.231394,-0.1709349,-0.4363585,-0.6082413,0.02700504,0.1113217,-0.04466397,172.17.160.76,10.64.29.0,2,unknown,2,2014-11-15 17:58:19.372,8,2014-11-15 17:52:35.410,3
2014-11-15 17:58:27.818,12521,417.3667,40.10476,-88.22195,234.69,0,171.9141,6,10,1416095907,0.2917786,0.9638367,-0.180603,39.16792,25.81499,-10.37173,255.2693,258.3516,10,-0.07174876,-0.4931381,-0.7251974,0.5830163,0.620836,-1.248239,0.0193615,-0.2110385,-0.7298378,-0.1231359,-0.03456359,-0.09656055,172.17.160.76,10.64.29.0,2,unknown,2,2014-11-15 17:58:19.372,8,2014-11-15 17:52:35.410,3
2014-11-15 17:58:27.850,12522,417.4,40.10476,-88.22195,234.69,0,171.9141,6,10,1416095907,0.04910278,0.8645325,-0.4773102,38.17246,26.74423,-10.2709,257.6289,260.7112,10,0.1249145,-0.567427,-0.5596724,0.5262094,0.554932,-1.259979,0.004910261,-0.6109056,-0.6352947,0.1353677,0.04318589,0.09807674,172.17.160.76,10.64.29.0,2,unknown,2,2014-11-15 17:58:19.372,8,2014-11-15 17:52:35.410,3
2014-11-15 17:58:27.884,12523,417.4333,40.10476,-88.22195,234.69,0,171.9141,6,10,1416095907,0.06150818,0.8135834,-0.3406372,37.65757,26.70983,-10.439,257.6101,260.6924,10,0.2010388,0.4566592,-0.443109,0.4706541,0.4875629,-1.26439,0.2630034,-0.08645349,-0.5379661,-0.09974284,-0.1264737,-0.1651843,172.17.160.76,10.64.29.0,2,unknown,2,2014-11-15 17:58:19.372,8,2014-11-15 17:52:35.410,3
2014-11-15 17:58:27.918,12524,417.4667,40.10476,-88.22195,234.69,0,171.9141,6,10,1416095907,0.0737915,1.017868,-0.09805298,36.69644,27.26048,-10.97672,258.9085,261.9908,10,0.08228156,-0.3417347,-0.5052502,0.4187273,0.4502215,-1.263696,0.1989961,0.4395977,-0.3895333,0.04038728,-0.1108678,0.190706,172.17.160.76,10.64.29.0,2,unknown,2,2014-11-15 17:58:19.372,8,2014-11-15 17:52:35.410,3
2014-11-15 17:58:27.951,12525,417.5,40.10476,-88.22195,234.69,0,171.9141,6,10,1416095907,0.5284576,0.5926819,-0.07954407,36.31886,27.29491,-10.67422,259.8553,262.9376,10,-0.1415151,0.1138336,-0.4139101,0.3314426,0.3540483,-1.268778,0.02753657,-0.1590651,-0.6000944,0.3255712,-0.1418261,0.1948317,172.17.160.76,10.64.29.0,2,unknown,2,2014-11-15 17:58:19.372,8,2014-11-15 17:52:35.410,3
2014-11-15 17:58:27.984,12526,417.5334,40.10476,-88.22195,234.69,0,171.9141,6,10,1416095907,0.3249359,0.7232971,-0.3598633,36.1129,27.36373,-10.53976,259.7869,262.8692,10,-0.2921892,0.1941226,0.07960455,0.3143103,0.3416903,-1.27263,-0.1655959,0.3285248,-0.06393971,0.3664537,-0.523931,0.0548918,172.17.160.76,10.64.29.0,2,unknown,2,2014-11-15 17:58:19.372,8,2014-11-15 17:52:35.410,3
2014-11-15 17:58:28.018,12527,417.5667,40.10476,-88.22195,234.69,0,171.9141,6,10,1416095907,0.1668854,0.7596436,-0.2987976,35.28908,27.77673,-10.13638,261.0627,264.145,10,-0.04827592,-0.5395053,-0.3901012,0.3149836,0.3339698,-1.277286,0.04430145,-0.6826578,-0.2834086,-0.2165095,0.2781936,-0.05316348,172.17.160.76,10.64.29.0,2,unknown,2,2014-11-15 17:58:19.372,8,2014-11-15 17:52:35.410,3
2014-11-15 17:58:28.052,12528,417.6,40.10476,-88.22195,234.69,0,171.9141,6,10,1416095907,0.2703857,0.8424225,-0.02159119,34.77419,28.08647,-10.37167,260.9114,263.9937,10,-0.1927402,0.07194583,-0.05303499,0.2928033,0.305218,-1.279549,-0.05762218,-0.1215454,-0.2790107,0.08059726,-0.1982429,-0.02492175,172.17.160.76,10.64.29.0,2,unknown,2,2014-11-15 17:58:19.372,8,2014-11-15 17:52:35.410,3
2014-11-15 17:58:28.084,12529,417.6334,40.10476,-88.22195,234.69,0,171.9141,6,10,1416095907,-0.09106445,1.296249,-0.08409119,34.46526,28.80921,-9.733002,262.2186,265.3009,10,0.2570624,-0.225647,-0.4585881,0.2882566,0.3012879,-1.283963,-0.01240289,-0.3467765,-0.1306972,-0.1395737,0.1256789,-0.03871153,172.17.160.76,10.64.29.0,2,unknown,2,2014-11-15 17:58:19.372,8,2014-11-15 17:52:35.410,3
2014-11-15 17:58:28.118,12530,417.6667,40.10476,-88.22195,234.6709,0,177.1875,6,10,1416095908,0.2648926,0.6478729,-0.3737488,34.43093,28.29296,-9.699432,262.071,265.1533,10,-0.1411776,0.4478095,-0.08733917,0.2582493,0.2660329,-1.281056,0.3223573,-0.1590867,-0.4430382,-0.1661776,0.3379313,0.1915616,172.17.160.76,10.64.29.0,2,unknown,2,2014-11-15 17:58:19.372,8,2014-11-15 17:52:35.410,3
2014-11-15 17:58:28.151,12531,417.7,40.10476,-88.22195,234.6709,0,177.1875,6,10,1416095908,-0.06781006,0.9387207,-0.3268738,34.73987,27.57023,-10.06912,262.195,265.2773,10,0.06293289,0.7450997,0.1777711,0.2441178,0.2641933,-1.282233,-0.05608258,0.7273508,0.1330626,0.1905811,-0.3107807,-0.09904692,172.17.160.76,10.64.29.0,2,unknown,2,2014-11-15 17:58:19.372,8,2014-11-15 17:52:35.410,3
2014-11-15 17:58:28.184,12532,417.7334,40.10476,-88.22195,234.6709,0,177.1875,6,10,1416095908,0.1623383,1.037567,-0.2240143,34.15633,27.12282,-10.17001,261.7273,264.8096,10,0.05249756,-0.5819481,-0.2346642,0.2577515,0.299699,-1.278466,-0.01234021,-0.09143386,-0.08689386,-0.2716507,0.005392073,-0.2159178,172.17.160.76,10.64.29.0,2,unknown,2,2014-11-15 17:58:19.372,8,2014-11-15 17:52:35.410,3
2014-11-15 17:58:28.218,12533,417.7667,40.10476,-88.22195,234.6709,0,177.1875,6,10,1416095908,0.2058411,0.8075562,-0.3182831,33.74442,27.2605,-10.64053,260.7312,263.8135,10,-0.1942313,0.1241097,0.1011602,0.2364344,0.2663104,-1.277606,0.08389591,-0.2966122,-0.2358808,0.1341002,-0.09317587,0.1427415,172.17.160.76,10.64.29.0,2,unknown,2,2014-11-15 17:58:19.372,8,2014-11-15 17:52:35.410,3
2014-11-15 17:58:28.251,12534,417.8,40.10476,-88.22195,234.6709,0,177.1875,6,10,1416095908,-0.08172607,1.063553,-0.2442017,33.50414,27.98323,-10.47238,260.9187,264.001,10,-0.1118951,-0.25981,-0.07949882,0.2630884,0.3003273,-1.281356,-0.08221062,0.1655415,0.1694764,0.1175452,0.1014565,0.1647152,172.17.160.76,10.64.29.0,2,unknown,2,2014-11-15 17:58:19.372,8,2014-11-15 17:52:35.410,3
2014-11-15 17:58:28.284,12535,417.8333,40.10476,-88.22195,234.6709,0,177.1875,6,10,1416095908,0.1370697,0.8622589,-0.4190369,33.9847,27.91439,-10.33798,260.5901,263.6724,10,-0.2108465,-0.7233422,-0.2609597,0.2586908,0.2906228,-1.282989,-0.07954984,-0.5235128,-0.1812667,-0.3884659,-0.001761058,-0.1109721,172.17.160.76,10.64.29.0,2,unknown,2,2014-11-15 17:58:19.372,8,2014-11-15 17:52:35.410,3
2014-11-15 17:58:28.318,12536,417.8667,40.10476,-88.22195,234.6709,0,177.1875,6,10,1416095908,0.1528168,0.8819885,-0.3561096,33.81306,28.22412,-10.10269,262.2513,265.3336,10,-0.1354931,0.3016067,0.1114283,0.2355877,0.2534201,-1.288433,-0.03049221,0.153499,-0.01547868,0.2632127,-0.1244926,0.05535648,172.17.160.76,10.64.29.0,2,unknown,2,2014-11-15 17:58:19.372,8,2014-11-15 17:52:35.410,3
2014-11-15 17:58:28.351,12537,417.9,40.10476,-88.22195,234.6709,0,177.1875,6,10,1416095908,-0.09866333,1.048065,-0.150238,33.67576,28.1553,-10.10269,262.2065,265.2888,10,-0.2403013,0.2492639,0.2092014,0.2480041,0.2727832,-1.289398,-0.1440561,0.421107,0.2389884,0.07800101,-0.07867949,-0.08867821,172.17.160.76,10.64.29.0,2,unknown,2,2014-11-15 17:58:19.372,8,2014-11-15 17:52:35.410,3
2014-11-15 17:58:28.384,12538,417.9333,40.10476,-88.22195,234.6709,0,177.1875,6,10,1416095908,0.1979523,0.9598846,-0.4668732,33.57278,28.18971,-10.20358,261.8514,264.9337,10,-0.1100557,-0.2532272,-0.3342267,0.2553175,0.2788776,-1.294239,-0.07080048,-0.5134277,-0.252366,-0.2443067,0.0484358,0.0229331,172.17.160.76,10.64.29.0,2,unknown,2,2014-11-15 17:58:19.372,8,2014-11-15 17:52:35.410,3
2014-11-15 17:58:28.418,12539,417.9667,40.10476,-88.22195,234.6709,0,177.1875,6,10,1416095908,0.08711243,0.8679657,-0.2241364,33.50414,28.46504,-9.934662,262.0061,265.0884,10,-0.004513792,0.4344468,-0.1601021,0.2250947,0.2425638,-1.297447,0.00220437,0.2240849,-0.2349564,0.1331106,-0.002987558,-0.2048184,172.17.160.76,10.64.29.0,2,unknown,2,2014-11-15 17:58:19.372,8,2014-11-15 17:52:35.410,3
2014-11-15 17:58:28.451,12540,418,40.10476,-88.22195,234.6709,0,177.1875,6,10,1416095908,0.1156006,1.187271,-0.1018066,33.40116,28.49947,-9.901093,262.3085,265.3908,10,-0.3460935,-0.1455551,-0.1608158,0.2101237,0.2486282,-1.298124,-0.1335601,0.3826474,-0.070145,-0.01219218,-0.02306751,0.02336934,172.17.160.76,10.64.29.0,2,unknown,2,2014-11-15 17:58:19.372,8,2014-11-15 17:52:35.410,3
2014-11-15 17:58:28.484,12541,418.0334,40.10476,-88.22195,234.6709,0,177.1875,6,10,1416095908,-0.03025818,0.945816,-0.3444214,32.95492,28.25855,-9.665802,262.7097,265.792,10,-0.4521291,-0.06335447,0.024712,0.2038377,0.2429602,-1.306704,-0.319332,-0.1254475,-0.107154,0.05792907,0.1913321,0.1010988,172.17.160.76,10.64.29.0,2,unknown,2,2014-11-15 17:58:19.372,8,2014-11-15 17:52:35.410,3
2014-11-15 17:58:28.518,12542,418.0667,40.10476,-88.22195,234.6709,0,177.1875,6,10,1416095908,0.009735107,0.984375,-0.3199615,33.19519,28.36181,-9.632111,262.6414,265.7238,10,-0.3956909,-0.296372,-0.01387827,0.2158571,0.2538134,-1.317522,-0.4221027,0.02897604,0.07449587,-0.06424621,-0.07123128,-0.09708284,172.17.160.76,[inet_nt60,2,unknown,2,2014-11-15 17:58:19.372,8,2014-11-15 17:52:35.410,3
2014-11-15 17:58:28.551,12543,418.1,40.10476,-88.22195,234.6709,0,177.1875,6,10,1416095908,0.2046051,1.092697,0.3339691,32.92059,29.25663,-9.699371,262.5397,265.622,10,-0.06586424,-0.2198535,-0.1325349,0.2289295,0.2589609,-1.330506,-0.2853923,-0.2155229,-0.07272672,-0.01563887,0.007261974,-0.1174542,172.17.160.76,10.64.29.0,2,unknown,2,2014-11-15 17:58:19.372,8,2014-11-15 17:52:35.410,3
2014-11-15 17:58:28.584,12544,418.1334,40.10476,-88.22195,234.6709,0,177.1875,6,10,1416095908,0.1960754,1.237762,0.3235321,32.44003,29.46312,-9.833832,262.3354,265.4177,10,0.1639849,-0.4345016,-0.4020194,0.1877381,0.2017947,-1.333787,0.04953884,-0.6941649,-0.2580149,-0.3593462,-0.1127458,-0.06788015,172.17.160.76,10.64.29.0,2,unknown,2,2014-11-15 17:58:19.372,8,2014-11-15 17:52:35.410,3
2014-11-15 17:58:28.617,12545,418.1667,40.10476,-88.22195,234.6709,0,177.1875,6,10,1416095908,0.1843719,0.7279053,-0.4670715,31.37592,29.49753,-9.867523,262.4948,265.5771,10,0.2622439,0.1978974,-0.6548743,0.1443417,0.1545093,-1.328829,0.5331665,0.05491177,-0.6549986,0.1592001,0.266894,0.5602906,172.17.160.76,10.64.29.0,2,unknown,2,2014-11-15 17:58:19.372,8,2014-11-15 17:52:35.410,3
2014-11-15 17:58:28.651,12546,418.2,40.10476,-88.22195,234.6709,0,177.1875,6,10,1416095908,0.2476654,0.9057312,0.02766418,31.30727,29.08454,-9.531342,265.6026,268.6849,10,0.1527099,0.1280831,-0.05509441,0.0784954,0.102475,-1.322563,0.07986263,0.3106522,-0.1626058,0.3308086,-0.1377592,0.1104003,172.17.160.76,10.64.29.0,2,unknown,2,2014-11-15 17:58:19.372,8,2014-11-15 17:52:35.410,3
2014-11-15 17:58:28.685,12547,418.2334,40.10476,-88.22195,234.6709,0,177.1875,6,10,1416095908,0.008758545,0.8095245,-0.4139252,31.78783,28.94688,-9.598541,265.9489,269.0312,10,-0.01823573,0.1227195,0.06864937,0.07548044,0.1035071,-1.318686,0.1856985,0.1719971,0.05705592,0.2218918,-0.06265691,0.2757775,172.17.160.76,10.64.29.0,2,unknown,2,2014-11-15 17:58:19.372,8,2014-11-15 17:52:35.410,3
2014-11-15 17:58:28.718,12548,418.2667,40.10476,-88.22195,234.6709,0,177.1875,6,10,1416095908,-0.09913635,0.9269867,-0.5049438,32.09677,28.84364,-9.564972,264.6891,267.7714,10,0.04377012,-0.1949972,-0.07018708,0.09671132,0.1323048,-1.318221,0.07360236,0.156481,0.106222,0.07857541,-0.1277265,-0.02190876,172.17.160.76,10.64.29.0,2,unknown,2,2014-11-15 17:58:19.372,8,2014-11-15 17:52:35.410,3
2014-11-15 17:58:28.751,12549,418.3,40.10476,-88.22195,234.6709,0,177.1875,6,10,1416095908,0.09399414,0.9365234,-0.08680725,31.85649,28.80922,-9.867523,264.0715,267.1538,10,-0.04656404,-0.05086957,-0.1264099,0.09065675,0.1243921,-1.31512,0.02910374,-0.1316298,-0.05859686,-0.1875056,-0.08956274,-0.1575471,172.17.160.76,10.64.29.0,2,unknown,2,2014-11-15 17:58:19.372,8,2014-11-15 17:52:35.410,3
2014-11-15 17:58:28.784,12550,418.3333,40.10476,-88.22195,234.6709,0,177.1875,6,10,1416095908,0.07601929,0.9339752,-0.404129,31.58188,28.87807,-10.06918,263.9179,267.0002,10,-0.3623721,-0.0894689,-0.05112683,0.06887054,0.1130028,-1.312643,0.04884597,0.4344069,-0.09814947,0.05757705,-0.09761574,0.03102583,172.17.160.76,10.64.29.0,2,unknown,2,2014-11-15 17:58:19.372,8,2014-11-15 17:52:35.410,3
2014-11-15 17:58:28.818,12551,418.3667,40.10476,-88.22195,234.6709,0,177.1875,6,10,1416095908,-0.07191467,1.003708,-0.3857269,31.65053,28.94691,-9.531403,265.7821,268.8644,15,-0.2213217,-0.3746119,-0.2336085,0.06001855,0.1027029,-1.321644,-0.1807153,-0.376875,-0.1854193,-0.01887155,0.2373296,0.1051771,172.17.160.76,10.64.29.0,2,unknown,2,2014-11-15 17:58:19.372,8,2014-11-15 17:52:35.410,3
2014-11-15 17:58:28.851,12552,418.4,40.10476,-88.22195,234.6709,0,177.1875,6,10,1416095908,0.1139526,0.9898682,-0.2992401,31.82216,29.60082,-9.161652,266.5801,269.6624,15,-0.4001607,0.3753704,-0.1281486,0.04488511,0.08353969,-1.325625,-0.2295164,-0.03038684,-0.1759816,-0.09216809,0.03361221,-0.1438506,172.17.160.76,10.64.29.0,2,unknown,2,2014-11-15 17:58:19.372,8,2014-11-15 17:52:35.410,3
2014-11-15 17:58:28.885,12553,418.4333,40.10476,-88.22195,234.6709,0,177.1875,6,10,1416095908,-0.09394836,1.090759,-0.3903198,31.95947,29.46316,-8.892792,266.8208,269.9031,15,-0.3269147,-0.1636369,-0.1620443,0.03124764,0.08260559,-1.337618,-0.2190313,0.1584787,-0.06993972,0.07343274,0.03766792,0.004498586,172.17.160.76,10.64.29.0,2,unknown,2,2014-11-15 17:58:19.372,8,2014-11-15 17:52:35.410,3
2014-11-15 17:58:28.918,12554,418.4667,40.10476,-88.22195,234.6709,0,177.1875,6,10,1416095908,0.02076721,0.9157715,-0.1983948,31.58188,29.63522,-9.195343,266.415,269.