time,timestamp,recordtime,lat,long,alt,speed,course,verticalAccuracy,horizontalAccuracy,locTimeStamp,accelerationX,accelerationY,accelerationZ,HeadingX,HeadingY,HeadingZ,TrueHeading,MagneticHeading,HeadingAccuracy,RotationX,RotationY,RotationZ,motionYaw,motionRoll,motionPitch,motionRotationRateX,motionRotationRateY,motionRotationRateZ,motionUserAccelerationX,motionUserAccelerationY,motionUserAccelerationZ,en0,pdp_ip0,DeviceOrientation,Activity,Activity Confidence,Activity Start,Steps,Last Step Date,State
2014-11-15 17:57:48.218,11333,377.7667,40.10478,-88.22192,235.4838,0.25,141.3281,6,10,1416095868,0.1056519,0.965332,0.04911804,31.82216,28.43023,-7.681244,233.1637,236.246,15,-0.1940941,0.5788796,-0.1819842,2.079684,2.178836,-1.393571,-0.09965463,0.7486702,-0.1976745,-0.04536594,0.02709214,-0.04961077,172.17.160.76,10.64.29.0,2,walking,0,2014-11-15 17:57:47.210,8,2014-11-15 17:52:35.410,3
2014-11-15 17:57:48.252,11334,377.8,40.10478,-88.22192,235.4838,0.25,141.3281,6,10,1416095868,0.2038116,0.994873,0.05288696,31.6162,28.43023,-7.210724,233.9235,237.0058,15,-0.1164504,0.3535932,-0.1802768,2.112143,2.230176,-1.39663,-0.1201382,0.5553728,-0.1816291,-0.05976683,0.001044731,-0.06873038,172.17.160.76,10.64.29.0,2,walking,0,2014-11-15 17:57:47.210,8,2014-11-15 17:52:35.410,3
2014-11-15 17:57:48.285,11335,377.8333,40.10478,-88.22192,235.4838,0.25,141.3281,6,10,1416095868,0.4080811,0.9116364,0.1178284,31.4789,28.49905,-6.404022,235.7038,238.7861,15,-0.1721981,0.09144603,-0.1432352,2.10135,2.231293,-1.397883,-0.03733538,0.3124505,-0.1227031,0.06794386,0.00978527,-0.05266879,172.17.160.76,10.64.29.0,2,walking,0,2014-11-15 17:57:47.210,8,2014-11-15 17:52:35.410,3
2014-11-15 17:57:48.318,11336,377.8667,40.10478,-88.22192,235.4838,0.25,141.3281,6,10,1416095868,0.1325073,1.117218,0.3014374,31.44457,28.32696,-6.504852,236.213,239.2953,15,-0.05842257,-0.1708338,-0.1131979,2.147561,2.274889,-1.399663,-0.04424136,-0.1727962,-0.07746605,0.1243024,0.02350354,0.1496913,172.17.160.76,10.64.29.0,2,walking,0,2014-11-15 17:57:47.210,8,2014-11-15 17:52:35.410,3
2014-11-15 17:57:48.351,11337,377.9,40.10478,-88.22192,235.4838,0.25,141.3281,6,10,1416095868,0.2755432,0.8772125,0.3684387,31.16997,28.73996,-6.370392,236.2664,239.3487,15,0.2475781,0.2914771,-0.3634805,2.164414,2.292862,-1.406177,0.1990809,0.2879318,-0.4007646,0.07582689,0.05908189,0.2415415,172.17.160.76,10.64.29.0,2,walking,0,2014-11-15 17:57:47.210,8,2014-11-15 17:52:35.410,3
2014-11-15 17:57:48.384,11338,377.9333,40.10478,-88.22192,235.4838,0.25,141.3281,6,10,1416095868,0.1624298,0.8835602,0.1360931,31.27294,29.2562,-5.66452,236.4572,239.5395,15,0.2549023,0.05654264,-0.3774828,2.157769,2.295973,-1.420117,0.345928,0.2363657,-0.3251594,0.1940417,-0.09531301,0.1735998,172.17.160.76,10.64.29.0,2,walking,0,2014-11-15 17:57:47.210,8,2014-11-15 17:52:35.410,3
2014-11-15 17:57:48.418,11339,377.9667,40.10478,-88.22192,235.4838,0.25,141.3281,6,10,1416095868,0.01022339,0.9109344,0.03309631,30.5521,29.35945,-5.093109,238.6787,241.761,15,0.1123074,-0.06911702,-0.1409001,2.142227,2.280035,-1.436624,0.2918013,-0.1511941,-0.1507917,-0.0330003,-0.06169115,0.01123983,172.17.160.76,10.64.29.0,2,walking,0,2014-11-15 17:57:47.210,8,2014-11-15 17:52:35.410,3
2014-11-15 17:57:48.450,11340,378,40.10478,-88.22192,235.4838,0.25,141.3281,6,10,1416095868,0.01548767,0.8786163,0.01301575,30.48345,29.35945,-5.025909,239.1516,242.2339,15,0.01419199,0.01725835,-0.1061105,2.127596,2.264141,-1.441662,0.1788375,-0.001127358,-0.1251645,-0.08881985,-0.08073926,-0.04920618,172.17.160.76,10.64.29.0,2,walking,0,2014-11-15 17:57:47.210,8,2014-11-15 17:52:35.410,3
2014-11-15 17:57:48.483,11341,378.0334,40.10478,-88.22192,235.4838,0.25,141.3281,6,10,1416095868,0.1481323,1.058929,0.08312988,30.03721,29.2562,-5.530121,239.4862,242.5685,15,-0.02606649,0.01186119,0.1625668,2.122042,2.26421,-1.441852,-0.02754127,0.1730098,0.1280964,-0.0391851,-0.03077591,-0.05411266,172.17.160.76,10.64.29.0,2,walking,0,2014-11-15 17:57:47.210,8,2014-11-15 17:52:35.410,3
2014-11-15 17:57:48.518,11342,378.0667,40.10478,-88.22192,235.4838,0.25,141.3281,6,10,1416095868,0.1123352,1.074356,0.07962036,30.17451,29.60037,-5.59726,239.4339,242.5162,15,0.01248037,-0.07481192,0.08447786,2.10411,2.248758,-1.439395,0.04046281,0.07985003,0.1783023,0.0183743,0.053329,0.01002997,172.17.160.76,10.64.29.0,2,walking,0,2014-11-15 17:57:47.210,8,2014-11-15 17:52:35.410,3
2014-11-15 17:57:48.551,11343,378.1,40.10478,-88.22192,235.4838,0.25,141.3281,6,10,1416095868,0.1061096,1.031128,0.06213379,30.17451,29.18737,-5.53006,239.4596,242.5419,15,0.02638234,-0.2814589,0.01752573,2.068315,2.212663,-1.438115,0.09511201,-0.07524548,0.04565706,0.006371354,0.08314539,0.000417802,172.17.160.76,10.64.29.0,2,walking,0,2014-11-15 17:57:47.210,8,2014-11-15 17:52:35.410,3
2014-11-15 17:57:48.584,11344,378.1334,40.10478,-88.22192,235.4838,0.25,141.3281,6,10,1416095868,0.0819397,0.9718628,0.1057281,30.17451,28.77438,-4.790619,240.8342,243.9165,15,-0.06193953,-0.2583969,-0.02978879,2.043469,2.179514,-1.439253,0.0332838,-0.2700467,-0.00502702,-0.001494837,0.03976722,-0.01286774,172.17.160.76,10.64.29.0,2,walking,0,2014-11-15 17:57:47.210,8,2014-11-15 17:52:35.410,3
2014-11-15 17:57:48.618,11345,378.1667,40.10478,-88.22192,235.4838,0.25,141.3281,6,10,1416095868,0.06253052,0.969986,0.1073303,30.65508,28.49904,-4.118378,242.4339,245.5162,15,-0.07138789,-0.01283537,-0.0157225,2.051176,2.183163,-1.439691,-0.008177916,-0.04568953,0.01329114,-0.02503502,-0.01955527,0.030584,172.17.160.76,10.64.29.0,2,walking,0,2014-11-15 17:57:47.210,8,2014-11-15 17:52:35.410,3
2014-11-15 17:57:48.651,11346,378.2,40.10478,-88.22192,235.4838,0.25,141.3281,6,10,1416095868,0.1513062,0.9603882,0.0818634,30.89536,28.94645,-3.748627,243.1185,246.2008,15,-0.127592,0.2206615,-0.05461877,2.052564,2.186014,-1.439586,-0.02076881,0.1379868,-0.006924175,-0.01396488,-0.01697805,0.05405347,172.17.160.76,10.64.29.0,2,walking,0,2014-11-15 17:57:47.210,8,2014-11-15 17:52:35.410,3
2014-11-15 17:57:48.684,11347,378.2334,40.10478,-88.22192,235.4838,0.25,141.3281,6,10,1416095868,0.1581421,0.9783783,0.05267334,31.13564,29.32503,-2.773865,244.8667,247.949,15,-0.1327546,0.158498,-0.1260461,2.10617,2.254481,-1.435282,-0.07372133,0.3202122,-0.0811248,0.04656944,-0.03044373,-0.003473262,172.17.160.76,10.64.29.0,2,walking,0,2014-11-15 17:57:47.210,8,2014-11-15 17:52:35.410,3
2014-11-15 17:57:48.718,11348,378.2667,40.10478,-88.22192,235.4838,0.25,141.3281,6,10,1416095868,0.1489868,1.042099,0.1517487,30.72373,30.08218,-2.168854,245.954,249.0363,15,-0.009465141,-0.1003911,-0.06842806,2.111966,2.263864,-1.435924,0.02932641,-0.0270552,-0.04936757,0.02535806,0.01414736,-0.00943161,172.17.160.76,10.64.29.0,2,walking,0,2014-11-15 17:57:47.210,8,2014-11-15 17:52:35.410,3
2014-11-15 17:57:48.751,11349,378.3,40.10478,-88.22192,235.4838,0.25,141.3281,6,10,1416095868,0.003921509,1.121521,0.1756592,30.48345,29.77244,-1.866333,246.4543,249.5366,15,0.1547949,0.2186908,-0.01641173,2.134071,2.287852,-1.436634,0.09475835,0.2316351,-0.1214892,0.009073003,0.04402043,0.07019341,172.17.160.76,10.64.29.0,2,walking,0,2014-11-15 17:57:47.210,8,2014-11-15 17:52:35.410,3
2014-11-15 17:57:48.784,11350,378.3333,40.10478,-88.22192,235.4838,0.25,141.3281,6,10,1416095868,0.2185516,0.9674988,0.1994476,30.44912,29.73803,-1.294952,247.778,250.8603,15,0.2542192,0.242426,-0.1037006,2.102219,2.264694,-1.441167,0.2733876,0.2550742,0.03931046,-0.09725402,0.162275,0.1005565,172.17.160.76,10.64.29.0,2,walking,0,2014-11-15 17:57:47.210,8,2014-11-15 17:52:35.410,3
2014-11-15 17:57:48.818,11351,378.3667,40.10478,-88.22192,235.4838,0.25,141.3281,6,10,1416095868,0.099823,0.8920441,0.02409363,30.6894,29.15295,-0.5890808,249.7045,252.7868,15,0.1861821,0.1940757,-0.1790656,2.067976,2.236394,-1.445469,0.32072,0.3104096,-0.08795328,0.08809828,0.05888388,0.1373933,172.17.160.76,10.64.29.0,2,walking,0,2014-11-15 17:57:47.210,8,2014-11-15 17:52:35.410,3
2014-11-15 17:57:48.851,11352,378.4,40.10478,-88.22192,235.4838,0.25,141.3281,6,10,1416095868,0.09593201,0.9917908,0.1199493,30.92968,29.2562,-0.2193298,250.8336,253.9159,15,0.1141234,-0.4808566,0.2125213,2.002081,2.175613,-1.449627,0.1288461,-0.3043438,0.1037969,-0.07269781,-0.06648996,-0.02315192,172.17.160.76,10.64.29.0,2,walking,0,2014-11-15 17:57:47.210,8,2014-11-15 17:52:35.410,3
2014-11-15 17:57:48.884,11353,378.4333,40.10478,-88.22192,235.4838,0.25,141.3281,6,10,1416095868,0.1110077,0.9027252,-0.01654053,31.30727,29.01529,-0.5218506,250.9371,254.0194,15,0.1196566,-0.4281367,0.1586426,1.951885,2.11342,-1.445413,0.2284839,-0.4339353,0.2566567,-0.01115983,-0.0003590216,0.05537282,172.17.160.76,10.64.29.0,2,walking,0,2014-11-15 17:57:47.210,8,2014-11-15 17:52:35.410,3
2014-11-15 17:57:48.917,11354,378.4667,40.10478,-88.22192,235.4838,0.25,141.3281,6,10,1416095868,0.1056824,1.048492,-0.05038452,31.6162,29.39388,-0.9588318,250.0693,253.1516,15,-0.08354682,-0.4131026,0.02573599,1.910227,2.060343,-1.443821,-0.01486215,-0.2654355,0.04085132,-0.003941918,-0.05475466,-0.121421,172.17.160.76,10.64.29.0,2,walking,0,2014-11-15 17:57:47.210,8,2014-11-15 17:52:35.410,3
2014-11-15 17:57:48.951,11355,378.5,40.10478,-88.22192,235.4838,0.25,141.3281,6,10,1416095868,0.09420776,0.9636536,-0.0614624,31.85649,29.35945,-1.463043,249.1354,252.2177,15,0.01274562,-0.2841364,-0.05674104,1.90363,2.043683,-1.443225,0.06518169,-0.3082836,-1.045767e-05,-0.007581555,0.05661868,-0.1083306,172.17.160.76,10.64.29.0,2,walking,0,2014-11-15 17:57:47.210,8,2014-11-15 17:52:35.410,3
2014-11-15 17:57:48.984,11356,378.5334,40.10478,-88.22192,235.4838,0.25,141.3281,6,10,1416095868,0.0844574,1.090012,0.05723572,31.41025,29.46271,-2.303375,247.8985,250.9808,15,-0.03790051,-0.05014679,-0.1710207,1.897899,2.034106,-1.445828,0.02844345,9.670863e-05,-0.1118276,0.004448642,-0.02184949,-0.06014459,172.17.160.76,10.64.29.0,2,walking,0,2014-11-15 17:57:47.210,8,2014-11-15 17:52:35.410,3
2014-11-15 17:57:49.019,11357,378.5667,40.10478,-88.22192,235.4838,0.25,141.3281,6,10,1416095868,0.08468628,1.024338,0.06367493,30.99833,29.18739,-2.773926,247.6793,250.7616,15,0.1827264,0.3922011,-0.3966747,1.89827,2.034561,-1.454924,0.2186936,0.04455071,-0.264098,-0.05001072,0.08064974,0.02462402,172.17.160.76,10.64.29.0,2,walking,0,2014-11-15 17:57:47.210,8,2014-11-15 17:52:35.410,3
2014-11-15 17:57:49.051,11358,378.6,40.10478,-88.22192,235.4838,0.25,141.3281,6,10,1416095868,0.05865479,0.85849,-0.05163574,30.75805,29.49713,-2.538635,248.2476,251.3299,15,0.1507325,0.4997715,-0.3652054,1.885487,2.027914,-1.46296,0.2492142,0.4601804,-0.3809096,-0.01189114,0.0301465,0.01617197,172.17.160.76,10.64.29.0,2,walking,0,2014-11-15 17:57:47.210,8,2014-11-15 17:52:35.410,3
2014-11-15 17:57:49.084,11359,378.6334,40.10478,-88.22192,235.4838,0.25,141.3281,6,10,1416095868,0.1047363,0.8880463,0.05519104,30.86103,29.60037,-1.900024,250.6149,253.6972,15,0.09324685,0.1488137,-0.1280048,1.869482,2.033249,-1.47836,0.1783461,0.4540312,-0.2140241,-0.00752025,-0.169147,-0.04893253,172.17.160.76,10.64.29.0,2,walking,0,2014-11-15 17:57:47.210,8,2014-11-15 17:52:35.410,3
2014-11-15 17:57:49.118,11360,378.6667,40.10477,-88.22193,235.5134,0.53,178.9453,6,10,1416095869,0.02726746,1.110962,0.2703705,30.82671,29.56595,-1.126923,253.3758,256.4581,15,0.2556528,-0.2098832,-0.3406753,1.832047,2.003676,-1.484562,0.2642638,0.1718869,-0.1425894,0.1451293,0.07988774,0.1925237,172.17.160.76,10.64.29.0,2,walking,0,2014-11-15 17:57:47.210,8,2014-11-15 17:52:35.410,3
2014-11-15 17:57:49.151,11361,378.7,40.10477,-88.22193,235.5134,0.53,178.9453,6,10,1416095869,-0.0335083,0.9724884,-0.2927704,30.48345,29.42827,-1.463043,253.3146,256.3969,15,0.3969764,0.09833669,-0.4627133,1.716495,1.885475,-1.502611,0.5177273,-0.01975568,-0.459808,-0.06806774,0.152928,0.4096983,172.17.160.76,10.64.29.0,2,walking,0,2014-11-15 17:57:47.210,8,2014-11-15 17:52:35.410,3
2014-11-15 17:57:49.184,11362,378.7334,40.10477,-88.22193,235.5134,0.53,178.9453,6,10,1416095869,0.3244781,0.9871521,-0.05409241,30.03721,29.80685,-1.294952,255.7188,258.8011,15,-0.02146614,-0.05232792,-0.3186398,1.615668,1.790514,-1.51756,0.1316762,0.1362077,-0.3736841,-0.0854407,-0.02609485,-0.3043681,172.17.160.76,10.64.29.0,2,walking,0,2014-11-15 17:57:47.210,8,2014-11-15 17:52:35.410,3
2014-11-15 17:57:49.218,11363,378.7667,40.10477,-88.22193,235.5134,0.53,178.9453,6,10,1416095869,-0.2311096,1.379089,0.01016235,29.45367,30.25426,-1.664673,255.9611,259.0434,15,0.5994078,-0.2538451,-0.5130926,1.461084,1.638,-1.530255,0.5131761,-0.04246061,-0.3707463,0.1612059,0.1803566,0.00585367,172.17.160.76,10.64.29.0,2,walking,0,2014-11-15 17:57:47.210,8,2014-11-15 17:52:35.410,3
2014-11-15 17:57:49.251,11364,378.8,40.10477,-88.22193,235.5134,0.53,178.9453,6,10,1416095869,0.0811615,0.9706268,-0.07707214,29.35069,30.564,-1.362152,257.554,260.6363,15,0.5509905,-0.368222,-0.7481011,1.293508,1.468988,-1.534824,0.6658931,-0.1858682,-0.4973282,-0.09971303,0.3532776,0.007607233,172.17.160.76,10.64.29.0,2,walking,0,2014-11-15 17:57:47.210,8,2014-11-15 17:52:35.410,3
2014-11-15 17:57:49.284,11365,378.8333,40.10477,-88.22193,235.5134,0.53,178.9453,6,10,1416095869,-0.0920105,1.394943,0.3110199,28.59552,31.04584,-1.026001,260.7384,263.8207,15,0.5574747,0.2256012,-0.6261123,-0.166799,0.001684079,-1.538114,0.4609203,0.1560309,-0.6783937,0.1331237,-0.07937625,-0.3294448,172.17.160.76,10.64.29.0,2,walking,0,2014-11-15 17:57:47.210,8,2014-11-15 17:52:35.410,3
2014-11-15 17:57:49.318,11366,378.8667,40.10477,-88.22193,235.5134,0.53,178.9453,6,10,1416095869,-0.01916504,1.037003,0.1346893,28.08063,31.21792,-0.8579407,262.4235,265.5058,15,0.8289227,0.09604424,-0.8815053,-0.4267412,-0.251251,-1.522883,0.8553794,0.4666564,-0.6060542,0.1404781,0.3544039,0.253148,172.17.160.76,10.64.29.0,2,walking,0,2014-11-15 17:57:47.210,8,2014-11-15 17:52:35.410,3
2014-11-15 17:57:49.351,11367,378.9,40.10477,-88.22193,235.5134,0.53,178.9453,6,10,1416095869,0.08729553,0.7718811,-0.1309357,26.87922,31.66534,-0.42099,266.1736,269.2559,15,0.3751307,-0.1436056,-0.7038005,-0.7540873,-0.5728472,-1.468202,0.5745149,-0.1031415,-0.9413086,0.1113737,-0.1007752,0.1935326,172.17.160.76,10.64.29.0,2,walking,0,2014-11-15 17:57:47.210,8,2014-11-15 17:52:35.410,3
2014-11-15 17:57:49.384,11368,378.9333,40.10477,-88.22193,235.5134,0.53,178.9453,6,10,1416095869,-0.1689453,0.9519806,-0.09413147,26.08973,32.18159,-0.5218506,269.3817,272.464,15,0.4676314,0.07307874,-0.5671361,-0.8226562,-0.643436,-1.45123,0.4415813,-0.07567176,-0.6880335,0.158858,-0.2209794,-0.03550604,172.17.160.76,10.64.29.0,2,walking,0,2014-11-15 17:57:47.210,8,2014-11-15 17:52:35.410,3
2014-11-15 17:57:49.418,11369,378.9667,40.10477,-88.22193,235.5134,0.53,178.9453,6,10,1416095869,0.05873108,0.7106781,0.08529663,25.30023,32.62898,-0.08486938,272.2902,275.3725,15,0.2708981,-0.2607277,-0.4598861,-0.8673884,-0.6845207,-1.42149,0.4615324,0.001727679,-0.5677533,-0.07488918,-0.03689395,0.02110998,172.17.160.76,10.64.29.0,2,walking,0,2014-11-15 17:57:47.210,8,2014-11-15 17:52:35.410,3
2014-11-15 17:57:49.451,11370,379,40.10477,-88.22193,235.5134,0.53,178.9453,6,10,1416095869,-0.1292267,0.9254608,-0.1893463,25.19725,32.52574,-0.5218506,272.5833,275.6656,15,0.2047681,-0.5954226,-0.1801082,-0.8900027,-0.7115258,-1.404596,0.2793681,-0.264128,-0.3253919,0.166759,-0.2755425,0.2105921,172.17.160.76,10.64.29.0,2,walking,0,2014-11-15 17:57:47.210,8,2014-11-15 17:52:35.410,3
2014-11-15 17:57:49.484,11371,379.0334,40.10477,-88.22193,235.5134,0.53,178.9453,6,10,1416095869,0.0118103,0.6233673,0.04400635,24.4764,32.62897,-0.5554199,273.4718,276.5541,15,0.1710176,-0.1161804,-0.1785197,-0.8854368,-0.7201421,-1.394618,0.3012038,-0.4224513,-0.1830074,0.0149107,-0.04134437,-0.07534073,172.17.160.76,10.64.29.0,2,walking,0,2014-11-15 17:57:47.210,8,2014-11-15 17:52:35.410,3
2014-11-15 17:57:49.518,11372,379.0667,40.10477,-88.22193,235.5134,0.53,178.9453,6,10,1416095869,-0.1330872,0.9072418,-0.09617615,24.57938,32.6634,-0.7235107,273.7743,276.8566,15,-0.01563835,-0.2462604,0.1739063,-0.86861,-0.7067416,-1.385098,0.1653394,0.02912552,0.08949562,0.1317032,-0.3594403,0.1844161,172.17.160.76,10.64.29.0,2,walking,0,2014-11-15 17:57:47.210,8,2014-11-15 17:52:35.410,3
2014-11-15 17:57:49.551,11373,379.1,40.10477,-88.22193,235.5134,0.53,178.9453,6,10,1416095869,-0.08081055,0.6320801,-0.07519531,23.96151,32.93872,-1.194092,273.5712,276.6535,15,0.05276627,-0.5309837,0.04264999,-0.8290859,-0.6771929,-1.386207,0.1244106,-0.5138201,0.08997407,-0.01807779,-0.07576989,0.04686516,172.17.160.76,10.64.29.0,2,walking,0,2014-11-15 17:57:47.210,8,2014-11-15 17:52:35.410,3
2014-11-15 17:57:49.584,11374,379.1334,40.10477,-88.22193,235.5134,0.53,178.9453,6,10,1416095869,0.05535889,0.8686981,-0.05485535,24.06449,32.9043,-0.8243103,273.7868,276.8691,15,-0.09199917,-0.3840092,0.3613491,-0.8044064,-0.6664179,-1.386447,0.03872721,-0.3956774,0.2522622,0.1591378,-0.3258597,0.06742661,172.17.160.76,10.64.29.0,2,walking,0,2014-11-15 17:57:47.210,8,2014-11-15 17:52:35.410,3
2014-11-15 17:57:49.618,11375,379.1667,40.10477,-88.22193,235.5134,0.53,178.9453,6,10,1416095869,-0.1085815,0.8200531,-0.1003876,24.23612,32.8699,-0.7907104,273.6779,276.7602,15,-0.07415891,-0.2065878,0.5002093,-0.723718,-0.5968197,-1.398064,0.02102811,-0.2184068,0.5101405,-0.02867875,-0.05541613,0.01220281,172.17.160.76,10.64.29.0,2,walking,0,2014-11-15 17:57:47.210,8,2014-11-15 17:52:35.410,3
2014-11-15 17:57:49.651,11376,379.2,40.10477,-88.22193,235.5134,0.53,178.9453,6,10,1416095869,0.0856781,0.800415,-0.04724121,25.02562,33.11082,-0.8243713,272.6154,275.6977,15,-0.1575691,-0.1569316,0.5984395,-0.6716503,-0.5485916,-1.403275,-0.007711923,-0.1386576,0.5159754,-0.0216294,-0.1659479,0.04188424,172.17.160.76,10.64.29.0,2,walking,0,2014-11-15 17:57:47.210,8,2014-11-15 17:52:35.410,3
2014-11-15 17:57:49.684,11377,379.2334,40.10477,-88.22193,235.5134,0.53,178.9453,6,10,1416095869,-0.05905151,0.9707031,-0.05145264,26.70759,33.35173,-1.731934,269.7952,272.8775,15,-0.2271772,-0.03794152,0.7330734,-0.5696799,-0.4479082,-1.415963,-0.1393215,0.1468638,0.7493747,0.1524658,-0.1876222,0.09176138,172.17.160.76,10.64.29.0,2,walking,0,2014-11-15 17:57:47.210,8,2014-11-15 17:52:35.410,3
2014-11-15 17:57:49.718,11378,379.2667,40.10477,-88.22193,235.5134,0.53,178.9453,6,10,1416095869,-0.03805542,0.7590485,-0.2428284,28.49254,32.93873,-2.202484,266.8961,269.9784,15,-0.3786557,-0.1504697,0.737294,-0.3994123,-0.2803684,-1.432298,-0.1639222,-0.173367,0.6947063,-0.02085009,-0.0197213,0.08121275,172.17.160.76,10.64.29.0,2,walking,0,2014-11-15 17:57:47.210,8,2014-11-15 17:52:35.410,3
2014-11-15 17:57:49.751,11379,379.3,40.10477,-88.22193,235.5134,0.53,178.9453,6,10,1416095869,-0.05871582,1.106384,-0.1762085,29.48799,32.42249,-2.101685,266.5671,269.6494,15,-0.3391442,0.2964743,0.8286641,-0.167227,-0.05150364,-1.450068,-0.3916005,0.135931,0.9752958,0.03728224,-0.2208554,0.007955162,172.17.160.76,10.64.29.0,2,walking,0,2014-11-15 17:57:47.210,8,2014-11-15 17:52:35.410,3
2014-11-15 17:57:49.784,11380,379.3333,40.10477,-88.22193,235.5134,0.53,178.9453,6,10,1416095869,0.004165649,0.9368286,-0.1462097,30.58643,31.52766,-2.168884,262.9213,266.0036,15,-0.2245801,0.210011,0.6420205,0.1269638,0.2549736,-1.456752,-0.14224,0.4101812,0.7231734,-0.03375256,0.129375,-0.02376254,172.17.160.76,10.64.29.0,2,walking,0,2014-11-15 17:57:47.210,8,2014-11-15 17:52:35.410,3
2014-11-15 17:57:49.818,11381,379.3667,40.10477,-88.22193,235.5134,0.53,178.9453,6,10,1416095869,0.07530212,1.058212,-0.1165009,31.20429,31.66533,-2.101715,261.8143,264.8966,15,-0.4030313,-0.1806257,0.6820294,0.2463786,0.3779548,-1.456335,-0.2690858,0.06101599,0.6294607,-0.03798074,-0.05662784,-0.04005908,172.17.160.76,10.64.29.0,2,walking,0,2014-11-15 17:57:47.210,8,2014-11-15 17:52:35.410,3
2014-11-15 17:57:49.851,11382,379.4,40.10477,-88.22193,235.5134,0.53,178.9453,6,10,1416095869,0.07746887,0.9638214,-0.06930542,32.74895,31.69974,-2.404236,260.2723,263.3546,15,-0.2405822,0.02480681,0.5986459,0.3818012,0.5106653,-1.456252,-0.3259805,-0.08701715,0.7223046,0.06935178,-0.2157065,0.02013731,172.17.160.76,10.64.29.0,2,walking,0,2014-11-15 17:57:47.210,8,2014-11-15 17:52:35.410,3
2014-11-15 17:57:49.884,11383,379.4333,40.10477,-88.22193,235.5134,0.53,178.9453,6,10,1416095869,0.201416,0.7828064,-0.09144592,33.57278,31.8374,-2.538696,259.0423,262.1246,15,-0.3319106,0.02184058,0.4811477,0.6210867,0.7562039,-1.446913,-0.1713863,0.2615185,0.4518215,-0.006021135,-0.1257744,-0.01014867,172.17.160.76,10.64.29.0,2,walking,0,2014-11-15 17:57:47.210,8,2014-11-15 17:52:35.410,3
2014-11-15 17:57:49.917,11384,379.4667,40.10477,-88.22193,235.5134,0.53,178.9453,6,10,1416095869,0.05775452,0.9953766,-0.04893494,35.28908,31.49325,-3.009277,255.9221,259.0044,15,-0.2088659,-0.07302388,0.3082273,0.7466875,0.8802626,-1.438603,-0.2536103,-0.1404798,0.4001149,-0.04547504,0.06878342,-0.1359085,172.17.160.76,10.64.29.0,2,walking,0,2014-11-15 17:57:47.210,8,2014-11-15 17:52:35.410,3
2014-11-15 17:57:49.951,11385,379.5,40.10477,-88.22193,235.5134,0.53,178.9453,6,10,1416095869,0.2709961,1.102264,-0.06851196,36.35319,30.70168,-3.177338,254.6008,257.6831,15,-0.1993768,0.05072843,0.3746554,0.8006361,0.9330422,-1.435446,-0.1424076,-0.005097778,0.3239847,-0.05065925,0.00452252,0.03140604,172.17.160.76,10.64.29.0,2,walking,0,2014-11-15 17:57:47.210,8,2014-11-15 17:52:35.410,3
2014-11-15 17:57:49.984,11386,379.5334,40.10477,-88.22193,235.5134,0.53,178.9453,6,10,1416095869,0.06785583,0.7919006,-0.08926392,36.9024,30.42634,-3.782379,252.138,255.2203,15,-0.1266008,-0.1852932,0.2202866,0.8844884,1.021439,-1.426533,-0.08448277,0.1770891,0.2514848,0.1483862,0.1126523,0.006552375,172.17.160.76,10.64.29.0,2,walking,0,2014-11-15 17:57:47.210,8,2014-11-15 17:52:35.410,3
2014-11-15 17:57:50.018,11387,379.5667,40.10477,-88.22193,235.5134,0.53,178.9453,6,10,1416095869,0.2668915,1.022964,-0.02653503,37.52027,30.15102,-4.656342,249.4064,252.4887,15,-0.1726189,-0.1997312,0.2755799,0.9213209,1.055518,-1.421642,-0.08683655,-0.1385427,0.244524,-0.0614511,-0.1969964,-0.01603623,172.17.160.76,10.64.29.0,2,walking,0,2014-11-15 17:57:47.210,8,2014-11-15 17:52:35.410,3
2014-11-15 17:57:50.051,11388,379.6,40.10477,-88.22193,235.5134,0.53,178.9453,6,10,1416095869,0.2122955,1.07988,0.02580261,38.13814,30.21985,-4.992523,248.6182,251.7005,15,-0.06359202,-0.05039819,0.2175765,0.9657356,1.095905,-1.416077,-0.08463131,-0.01949292,0.25045,0.1298414,0.03490965,0.04392725,172.17.160.76,10.64.29.0,2,walking,0,2014-11-15 17:57:47.210,8,2014-11-15 17:52:35.410,3
2014-11-15 17:57:50.084,11389,379.6334,40.10477,-88.22193,235.5134,0.53,178.9453,6,10,1416095869,0.2266846,0.8385162,0.001327515,38.85898,29.35945,-5.429474,247.7358,250.8181,15,-0.1587401,-0.1987235,0.2691644,0.9884593,1.12198,-1.406826,0.00407019,0.067212,0.1996231,-0.1583614,-0.1187433,-0.2078582,172.17.160.76,10.64.29.0,2,walking,0,2014-11-15 17:57:47.210,8,2014-11-15 17:52:35.410,3
2014-11-15 17:57:50.117,11390,379.6667,40.10476,-88.22193,235.4464,0.32,201.4453,6,10,1416095870,0.2353363,1.16333,0.27565,39.33955,29.70362,-5.832794,246.9644,250.0467,15,-0.1919918,-0.3419185,0.3003793,1.014945,1.145406,-1.402232,-0.1415802,-0.2003955,0.3526741,-0.02789181,-0.1785909,-0.0545457,172.17.160.76,10.64.29.0,2,walking,0,2014-11-15 17:57:47.210,8,2014-11-15 17:52:35.410,3
2014-11-15 17:57:50.151,11391,379.7,40.10476,-88.22193,235.4464,0.32,201.4453,6,10,1416095870,-0.07794189,0.6534424,-0.3023987,39.95741,29.0153,-7.042877,246.5732,249.6555,15,0.0415541,-0.2426933,-0.05450772,1.021289,1.138296,-1.394272,0.2080166,-0.2701267,0.003893064,-0.02749647,0.1938848,0.0065581,172.17.160.76,10.64.29.0,2,walking,0,2014-11-15 17:57:47.210,8,2014-11-15 17:52:35.410,3
2014-11-15 17:57:50.184,11392,379.7334,40.10476,-88.22193,235.4464,0.32,201.4453,6,10,1416095870,0.2127686,1.03569,0.02789307,40.43797,29.35945,-8.320099,249.1858,252.2681,15,-0.3418418,-0.1322153,0.2001424,1.024062,1.136309,-1.392698,-0.1613051,-0.1452909,0.1906312,-0.1320265,-0.3975735,-0.152019,172.17.160.76,10.64.29.0,2,walking,0,2014-11-15 17:57:47.210,8,2014-11-15 17:52:35.410,3
2014-11-15 17:57:50.218,11393,379.7667,40.10476,-88.22193,235.4464,0.32,201.4453,6,10,1416095870,0.06808472,0.9302673,-0.1071777,41.29612,29.60037,-9.496552,247.0559,250.1382,15,0.1025019,-0.1367192,-0.08814531,1.053182,1.159056,-1.38767,0.1664208,-0.1838284,0.03210158,0.1997531,0.4075441,0.2351868,172.17.160.76,10.64.29.0,2,walking,0,2014-11-15 17:57:47.210,8,2014-11-15 17:52:35.410,3
2014-11-15 17:57:50.251,11394,379.8,40.10476,-88.22193,235.4464,0.32,201.4453,6,10,1416095870,0.00302124,0.7771301,-0.1871796,41.70803,29.6692,-10.43765,245.9448,249.0271,15,-0.310564,-0.4855177,-0.009885654,1.027804,1.131315,-1.387469,0.03980336,-0.04172045,-0.01231978,-0.1903997,-0.1830259,-0.2080803,172.17.160.76,10.64.29.0,2,walking,0,2014-11-15 17:57:47.210,8,2014-11-15 17:52:35.410,3
2014-11-15 17:57:50.284,11395,379.8333,40.10476,-88.22193,235.4464,0.32,201.4453,6,10,1416095870,0.2379456,1.185379,-0.05877686,42.73782,29.73803,-11.78226,245.1693,248.2516,15,0.08534259,-0.4260259,-0.1278179,1.056266,1.148885,-1.389618,-0.1087307,-0.3932718,0.004433586,0.08457509,0.1130323,0.2058987,172.17.160.76,10.64.29.0,2,walking,0,2014-11-15 17:57:47.210,8,2014-11-15 17:52:35.410,3
2014-11-15 17:57:50.317,11396,379.8667,40.10476,-88.22193,235.4464,0.32,201.4453,6,10,1416095870,-0.09336853,0.8187256,-0.3313446,42.56618,29.91012,-12.62253,244.1802,247.2625,15,-0.05191034,-0.2594883,-0.1741936,1.045713,1.130264,-1.389683,0.1517641,-0.3581444,-0.1120585,0.1788088,0.375838,0.2054099,172.17.160.76,10.64.29.0,2,walking,0,2014-11-15 17:57:47.210,8,2014-11-15 17:52:35.410,3
2014-11-15 17:57:50.351,11397,379.9,40.10476,-88.22193,235.4464,0.32,201.4453,6,10,1416095870,0.5106659,1.384354,0.08796692,42.63484,29.63478,-14.16879,243.6737,246.756,15,-0.0198315,-0.5434591,0.0747006,1.052037,1.122579,-1.396143,-0.167536,-0.4971466,0.03488956,-0.1212931,-0.07289115,-0.05981318,172.17.160.76,10.64.29.0,2,walking,0,2014-11-15 17:57:47.210,8,2014-11-15 17:52:35.410,3
2014-11-15 17:57:50.384,11398,379.9333,40.10476,-88.22193,235.4464,0.32,201.4453,6,10,1416095870,-0.1237488,0.9176331,-0.2163849,42.56618,29.84129,-16.32004,241.5013,244.5836,15,0.1638462,-0.3633558,0.01551824,1.009224,1.066553,-1.393217,0.2796393,-0.2303299,-0.06303633,0.08004851,0.2886446,-0.08672697,172.17.160.76,10.64.29.0,2,walking,0,2014-11-15 17:57:47.210,8,2014-11-15 17:52:35.410,3
2014-11-15 17:57:50.418,11399,379.9667,40.10476,-88.22193,235.4464,0.32,201.4453,6,10,1416095870,0.2697601,1.135162,-0.0982666,42.70349,29.6348,-17.3284,240.5653,243.6476,15,0.1030143,-0.4770718,0.008778311,0.9855437,1.032219,-1.390014,0.1160966,-0.4633739,0.0223288,-0.1928142,-0.0810086,-0.04306251,172.17.160.76,10.64.29.0,2,walking,0,2014-11-15 17:57:47.210,8,2014-11-15 17:52:35.410,3
2014-11-15 17:57:50.451,11400,380,40.10476,-88.22193,235.4464,0.32,201.4453,6,10,1416095870,0.04426575,1.105087,-0.1635132,42.87512,29.6692,-18.43765,239.668,242.7503,15,0.2408848,-0.1926989,-0.03482269,0.9695482,1.008558,-1.38774,0.2228089,-0.3519103,0.01508573,0.1157464,0.1518704,-0.001226819,172.17.160.76,10.64.29.0,2,walking,0,2014-11-15 17:57:47.210,8,2014-11-15 17:52:35.410,3
2014-11-15 17:57:50.484,11401,380.0334,40.10476,-88.22193,235.4464,0.32,201.4453,6,10,1416095870,0.1531525,0.9861298,-0.1603088,43.39001,29.4283,-21.89981,235.0294,238.1118,15,0.03889946,-0.6438043,0.01663224,0.9182537,0.9502971,-1.38168,0.2421525,-0.2607524,-0.01316681,-0.1141748,0.1418985,0.01480811,172.17.160.76,10.64.29.0,2,walking,0,2014-11-15 17:57:47.210,8,2014-11-15 17:52:35.410,3
2014-11-15 17:57:50.518,11402,380.0667,40.10476,-88.22193,235.4464,0.32,201.4453,6,10,1416095870,0.1194763,1.199585,-0.05957031,43.32135,29.22179,-22.97537,233.9176,236.9999,15,0.1672106,-0.4446824,-0.06028784,0.8975048,0.9106763,-1.377819,0.1704884,-0.448558,0.01795689,0.0793122,0.06212631,-0.01102858,172.17.160.76,10.64.29.0,2,walking,0,2014-11-15 17:57:47.210,8,2014-11-15 17:52:35.410,3
2014-11-15 17:57:50.551,11403,380.1,40.10476,-88.22193,235.4464,0.32,201.4453,6,10,1416095870,0.2078247,1.033096,-0.188324,42.9781,29.01529,-24.79056,232.0619,235.1442,15,0.06034297,-0.5025289,0.01198849,0.8659675,0.871754,-1.375696,0.1497196,-0.1731343,-0.0951551,-0.1055796,0.199468,-0.08756149,172.17.160.76,10.64.29.0,2,walking,0,2014-11-15 17:57:47.210,8,2014-11-15 17:52:35.410,3
2014-11-15 17:57:50.584,11404,380.1334,40.10476,-88.22193,235.4464,0.32,201.4453,6,10,1416095870,0.1249542,1.113678,-0.1511993,43.32136,28.73996,-26.87454,230.1695,233.2518,15,0.2215614,-0.62671,-0.1007247,0.8504465,0.844086,-1.372875,0.1628486,-0.5726718,0.04493026,0.09424018,0.03627673,-0.1124733,172.17.160.76,10.64.29.0,2,walking,0,2014-11-15 17:57:47.210,8,2014-11-15 17:52:35.410,3
2014-11-15 17:57:50.618,11405,380.1667,40.10476,-88.22193,235.4464,0.32,201.4453,6,10,1416095870,0.1148071,1.011581,-0.1661987,43.52731,28.94646,-27.47958,229.7917,232.8741,15,0.251845,-0.2669105,-0.153079,0.813983,0.7912723,-1.368814,0.3223405,-0.4636551,-0.1429753,-0.01773039,0.1340071,-0.01018126,172.17.160.76,10.64.29.0,2,walking,0,2014-11-15 17:57:47.210,8,2014-11-15 17:52:35.410,3
2014-11-15 17:57:50.651,11406,380.2,40.10476,-88.22193,235.4464,0.32,201.4453,6,10,1416095870,0.1472778,1.022247,-0.1998444,43.18405,28.67113,-28.95859,229.0214,232.1037,15,0.2749365,-0.288374,-0.03863847,0.7663608,0.7371392,-1.364696,0.3394418,-0.1912386,-0.08853076,-0.02274907,0.03274499,-0.01468129,172.17.160.76,10.64.29.0,2,walking,0,2014-11-15 17:57:47.210,8,2014-11-15 17:52:35.410,3
2014-11-15 17:57:50.684,11407,380.2334,40.10476,-88.22193,235.4464,0.32,201.4453,6,10,1416095870,0.07550049,0.9990234,-0.05607605,42.84079,28.60229,-29.69809,228.7642,231.8465,15,0.205134,-0.2833454,-0.221987,0.7168751,0.6802359,-1.356224,0.2989996,-0.2786877,-0.1334222,0.01335036,0.04517969,-0.034308,172.17.160.76,10.64.29.0,2,walking,0,2014-11-15 17:57:47.210,8,2014-11-15 17:52:35.410,3
2014-11-15 17:57:50.718,11408,380.2667,40.10476,-88.22193,235.4464,0.32,201.4453,6,10,1416095870,0.2355194,0.9881287,-0.2232208,41.87967,28.39581,-31.10983,227.4098,230.4921,15,0.05689444,-0.04785328,-0.1427036,0.6610762,0.6203998,-1.353765,0.1563327,-0.05658119,-0.1380874,-0.04197902,0.01131298,0.001695877,172.17.160.76,10.64.29.0,2,walking,0,2014-11-15 17:57:47.210,8,2014-11-15 17:52:35.410,3
2014-11-15 17:57:50.751,11409,380.3,40.10476,-88.22193,235.4464,0.32,201.4453,6,10,1416095870,0.1423187,1.016373,-0.02503967,41.67371,28.67113,-31.84933,227.4064,230.4887,15,0.0685724,-0.26598,-0.1821094,0.6377551,0.5953781,-1.352709,0.1273999,-0.1733016,-0.1184256,0.1421325,0.01736983,0.03681597,172.17.160.76,10.64.29.0,2,walking,0,2014-11-15 17:57:47.210,8,2014-11-15 17:52:35.410,3
2014-11-15 17:57:50.784,11410,380.3333,40.10476,-88.22193,235.4464,0.32,201.4453,6,10,1416095870,0.1091461,0.8592834,-0.2457123,41.63939,28.91206,-32.28635,227.1278,230.2101,15,-0.1811509,-0.1534114,-0.06487993,0.6121725,0.5651848,-1.352757,0.0475095,-0.1170001,-0.1252605,0.01023046,-0.01817821,0.05204634,172.17.160.76,10.64.29.0,2,walking,0,2014-11-15 17:57:47.210,8,2014-11-15 17:52:35.410,3
2014-11-15 17:57:50.818,11411,380.3667,40.10476,-88.22193,235.4464,0.32,201.4453,6,10,1416095870,0.1977386,1.055618,-0.1099396,41.77669,28.9809,-32.15182,227.413,230.4953,15,-0.05472956,-0.3131286,0.03995381,0.6150112,0.5636121,-1.356389,-0.08412337,-0.181674,0.02668366,0.06047842,-0.02670895,-0.05051736,172.17.160.76,10.64.29.0,2,walking,0,2014-11-15 17:57:47.210,8,2014-11-15 17:52:35.410,3
2014-11-15 17:57:50.851,11412,380.4,40.10476,-88.22193,235.4464,0.32,201.4453,6,10,1416095870,0.1745758,1.043533,-0.1441498,41.43343,28.91206,-32.55521,227.0112,230.0935,15,-0.03225594,-0.232446,0.03180267,0.6194246,0.5625875,-1.356295,0.01168466,-0.2452545,0.05571152,0.08420377,0.07853571,0.07011448,172.17.160.76,10.64.29.0,2,walking,0,2014-11-15 17:57:47.210,8,2014-11-15 17:52:35.410,3
2014-11-15 17:57:50.884,11413,380.4333,40.10476,-88.22193,235.4464,0.32,201.4453,6,10,1416095870,0.2403717,1.17421,-0.1357269,41.63939,28.70556,-32.55521,226.5166,229.5989,15,-0.146145,-0.01033733,0.02915283,0.6274036,0.568844,-1.35468,-0.03389454,0.1075594,0.05880146,-0.08821066,-0.04470033,-0.09908573,172.17.160.76,10.64.29.0,2,walking,0,2014-11-15 17:57:47.210,8,2014-11-15 17:52:35.410,3
2014-11-15 17:57:50.918,11414,380.4667,40.10476,-88.22193,235.4464,0.32,201.4453,6,10,1416095870,0.2312469,1.189636,-0.1495056,41.36478,28.63673,-32.82413,226.0201,229.1024,15,-0.08321686,-0.1062585,-0.005555354,0.6379024,0.5813988,-1.35575,-0.07434776,0.0009756647,0.01274787,0.1231778,0.1972431,0.04260433,172.17.160.76,10.64.29.0,2,walking,0,2014-11-15 17:57:47.210,8,2014-11-15 17:52:35.410,3
2014-11-15 17:57:50.951,11415,380.5,40.10476,-88.22193,235.4464,0.32,201.4453,6,10,1416095870,0.1714325,1.116211,-0.1670837,41.53641,28.39583,-32.99216,225.7617,228.8441,15,-0.1868823,0.160586,0.1480299,0.657177,0.6029969,-1.356558,-0.1182608,0.2112321,0.1339668,-0.04845712,0.07263557,-0.1499952,172.17.160.76,10.64.29.0,2,walking,0,2014-11-15 17:57:47.210,8,2014-11-15 17:52:35.410,3
2014-11-15 17:57:50.984,11416,380.5334,40.10476,-88.22193,235.4464,0.32,201.4453,6,10,1416095870,0.2485199,1.196442,-0.07383728,41.53641,28.46466,-32.85764,225.5137,228.596,15,-0.06432333,-0.1161751,0.08985505,0.6814353,0.6300012,-1.356223,-0.04057835,-0.03437995,0.1175217,0.1929579,0.2289264,0.1207537,172.17.160.76,10.64.29.0,2,walking,0,2014-11-15 17:57:47.210,8,2014-11-15 17:52:35.410,3
2014-11-15 17:57:51.018,11417,380.5667,40.10476,-88.22193,235.4464,0.32,201.4453,6,10,1416095870,0.05171204,1.019989,-0.2330933,41.57074,28.3614,-32.55515,225.4499,228.5322,15,-0.1326425,-0.003065831,0.149088,0.6956602,0.6426219,-1.354018,-0.01617193,-0.00962521,0.1610813,-0.01944826,0.1366096,0.01385604,172.17.160.76,10.64.29.0,2,walking,0,2014-11-15 17:57:47.210,8,2014-11-15 17:52:35.410,3
2014-11-15 17:57:51.051,11418,380.6,40.10476,-88.22193,235.4464,0.32,201.4453,6,10,1416095870,0.3090668,1.148621,-0.01873779,41.22748,28.70557,-31.61398,225.7146,228.7969,15,-0.1008044,-0.05382302,0.1837304,0.7222694,0.6707795,-1.352919,-0.09831281,0.06826485,0.1989508,-0.006326203,0.07639109,0.04220314,172.17.160.76,10.64.29.0,2,walking,0,2014-11-15 17:57:47.210,8,2014-11-15 17:52:35.410,3
2014-11-15 17:57:51.085,11419,380.6334,40.10476,-88.22193,235.4464,0.32,201.4453,6,10,1416095870,0.09980774,1.158005,-0.2835999,41.29613,28.29257,-30.94168,225.9705,229.0528,15,0.07610862,-0.03142104,0.2065385,0.7310064,0.6795933,-1.352063,-0.03439308,0.01404809,0.1994874,0.1302722,0.1203387,0.1247161,172.17.160.76,10.64.29.0,2,walking,0,2014-11-15 17:57:47.210,8,2014-11-15 17:52:35.410,3
2014-11-15 17:57:51.118,11420,380.6667,40.10476,-88.22193,235.3824,0.15,201.0938,6,10,1416095871,0.4093475,1.280579,-0.02926636,42.1886,28.15491,-29.93326,226.8383,229.9206,15,0.4472196,0.5296702,0.6613564,0.7775915,0.7311082,-1.332683,0.2182946,0.2943673,0.6129337,0.01061689,0.07470889,-0.101403,172.17.160.76,10.64.29.0,2,walking,0,2014-11-15 17:57:47.210,8,2014-11-15 17:52:35.410,3
2014-11-15 17:57:51.150,11421,380.7,40.10476,-88.22193,235.3824,0.15,201.0938,6,10,1416095871,0.037323,1.136093,-0.3065338,42.9781,27.29452,-28.68967,227.3351,230.4174,15,0.1944267,0.259728,0.6385903,0.7992492,0.7679483,-1.309486,0.5297964,0.5587672,0.6089135,0.1990307,0.3837403,0.1744251,172.17.160.76,10.64.29.0,2,walking,0,2014-11-15 17:57:47.210,8,2014-11-15 17:52:35.410,3
2014-11-15 17:57:51.184,11422,380.7334,40.10476,-88.22193,235.3824,0.15,201.0938,6,10,1416095871,0.2576752,1.062531,-0.09205627,43.63029,26.43411,-26.77371,228.1547,231.237,15,-0.05811524,0.7961243,0.737894,0.8250412,0.804114,-1.289682,0.08818537,0.4510494,0.6694429,-0.2200707,0.02759538,-0.1312203,172.17.160.76,10.64.29.0,2,walking,0,2014-11-15 17:57:47.210,8,2014-11-15 17:52:35.410,3
2014-11-15 17:57:51.218,11423,380.7667,40.10476,-88.22193,235.3824,0.15,201.0938,6,10,1416095871,0.2910004,1.316498,-0.1268005,44.21383,25.91788,-25.4628,228.8739,231.9562,15,0.04468385,0.8119643,0.5900465,0.8747039,0.8747063,-1.272906,0.04676589,0.9244227,0.7379025,0.03245335,0.1065727,0.096145,172.17.160.76,10.64.29.0,2,walking,0,2014-11-15 17:57:47.210,8,2014-11-15 17:52:35.410,3
2014-11-15 17:57:51.251,11424,380.8,40.10476,-88.22193,235.3824,0.15,201.0938,6,10,1416095871,0.1430664,0.8042755,-0.1919708,45.1063,25.16071,-22.37033,230.19,233.2723,15,-0.6469859,0.1613268,0.3588687,0.9370863,0.9607673,-1.254391,-0.495261,0.1641343,0.3474259,-0.09273809,0.0152773,-0.05523328,172.17.160.76,10.64.29.0,2,walking,0,2014-11-15 17:57:47.210,8,2014-11-15 17:52:35.410,3
2014-11-15 17:57:51.284,11425,380.8333,40.10476,-88.22193,235.3824,0.15,201.0938,6,10,1416095871,0.4625092,1.273956,-0.1117249,45.68985,25.19514,-19.37894,232.0911,235.1734,15,-0.406078,0.6339442,0.4857103,0.981559,1.008736,-1.254135,-0.5572091,0.417712,0.4402839,-0.120424,-0.1460047,-0.02601824,172.17.160.76,10.64.29.0,2,walking,0,2014-11-15 17:57:47.210,8,2014-11-15 17:52:35.410,3
2014-11-15 17:57:51.318,11426,380.8667,40.10476,-88.22193,235.3824,0.15,201.0938,6,10,1416095871,0.0541687,0.8296661,-0.4221039,45.62119,25.40164,-17.89993,232.7107,235.793,15,-0.167972,0.2964775,0.2749911,1.030869,1.08308,-1.243544,-0.06214405,0.4760512,0.3166668,-0.02487,0.1667795,-0.07214712,172.17.160.76,10.64.29.0,2,walking,0,2014-11-15 17:57:47.210,8,2014-11-15 17:52:35.410,3
2014-11-15 17:57:51.351,11427,380.9,40.10476,-88.22193,235.3824,0.15,201.0938,6,10,1416095871,0.3302307,0.9472961,-0.2323151,46.10176,25.95231,-15.47971,233.9613,237.0436,15,-0.2744936,0.285673,0.2445501,1.046045,1.103884,-1.239897,-0.213483,0.2130648,0.2362374,-0.2359496,-0.1160842,-0.2758588,172.17.160.76,10.64.29.0,2,walking,0,2014-11-15 17:57:47.210,8,2014-11-15 17:52:35.410,3
2014-11-15 17:57:51.384,11428,380.9333,40.10476,-88.22193,235.3824,0.15,201.0938,6,10,1416095871,0.1759338,1.017944,-0.1878204,45.86148,25.7114,-14.57217,234.4359,237.5182,15,0.1713094,0.6341674,0.26913,1.076091,1.148166,-1.232525,0.09257416,0.6747035,0.3203178,0.04359449,0.1161185,-0.02385832,172.17.160.76,10.64.29.0,2,walking,0,2014-11-15 17:57:47.210,8,2014-11-15 17:52:35.410,3
2014-11-15 17:57:51.418,11429,380.9667,40.10476,-88.22193,235.3824,0.15,201.0938,6,10,1416095871,0.299057,0.763092,-0.270462,45.82715,25.05749,-13.26138,236.5723,239.6546,15,-0.03683445,0.09463809,-0.1341719,1.062132,1.150733,-1.224925,0.06964914,-0.1165397,-0.05634335,-0.2184485,-0.07614114,-0.1189298,172.17.160.76,10.64.29.0,2,walking,0,2014-11-15 17:57:47.210,8,2014-11-15 17:52:35.410,3
2014-11-15 17:57:51.451,11430,381,40.10476,-88.22193,235.3824,0.15,201.0938,6,10,1416095871,0.3321381,1.14064,-0.1802521,45.6212,25.33281,-12.38748,237.473,240.5553,15,0.4099116,0.5946125,-0.03024818,1.054954,1.14646,-1.226802,0.1404236,0.3071629,-0.08622171,-0.044523,-0.05274314,-0.1720619,172.17.160.76,10.64.29.0,2,walking,0,2014-11-15 17:57:47.210,8,2014-11-15 17:52:35.410,3
2014-11-15 17:57:51.485,11431,381.0334,40.10476,-88.22193,235.3824,0.15,201.0938,6,10,1416095871,0.2035675,0.918808,-0.1091919,45.7585,25.26398,-11.78244,238.3967,241.479,15,0.2960306,-0.04136528,-0.253959,1.01984,1.131059,-1.222141,0.4848608,0.4259779,-0.09007032,0.02300543,0.2008074,-0.03481762,172.17.160.76,10.64.29.0,2,walking,0,2014-11-15 17:57:47.210,8,2014-11-15 17:52:35.410,3
2014-11-15 17:57:51.518,11432,381.0667,40.10476,-88.22193,235.3824,0.15,201.0938,6,10,1416095871,0.3714905,0.9865875,-0.2013397,45.65552,25.5049,-11.21103,239.7239,242.8062,15,0.2346024,0.0651814,-0.3603776,0.981501,1.097907,-1.223428,0.2465016,-0.002970395,-0.3440694,-0.1077068,-0.08718344,-0.08034737,172.17.160.76,10.64.29.0,2,walking,0,2014-11-15 17:57:47.210,8,2014-11-15 17:52:35.410,3
2014-11-15 17:57:51.551,11433,381.1,40.10476,-88.22193,235.3824,0.15,201.0938,6,10,1416095871,0.188446,0.9738464,-0.1554871,44.86603,24.91982,-10.50516,241.5864,244.6687,15,0.3162072,-0.1204947,-0.6015559,0.9060692,1.033656,-1.231958,0.4495971,0.02218248,-0.5187806,0.004532603,0.1481061,0.1142923,172.17.160.76,10.64.29.0,2,walking,0,2014-11-15 17:57:47.210,8,2014-11-15 17:52:35.410,3
2014-11-15 17:57:51.585,11434,381.1334,40.10476,-88.22193,235.3824,0.15,201.0938,6,10,1416095871,0.2010956,0.9072418,-0.3319702,43.83625,25.95229,-9.967316,243.8197,246.902,15,0.259394,-0.2671369,-0.8887155,0.8444629,0.9711674,-1.243057,0.3447044,-0.2615037,-0.8054205,-0.1410663,0.01233398,0.04445479,172.17.160.76,10.64.29.0,2,walking,0,2014-11-15 17:57:47.210,8,2014-11-15 17:52:35.410,3
2014-11-15 17:57:51.618,11435,381.1667,40.10476,-88.22193,235.3824,0.15,201.0938,6,10,1416095871,0.2746887,0.9677429,-0.2144165,43.59597,26.26204,-9.328583,245.6815,248.7639,15,0.4716038,0.1616326,-0.8012722,0.7687944,0.897073,-1.256927,0.4483837,0.1167622,-0.799571,-0.03202335,-0.02846242,-0.1608158,172.17.160.76,10.64.29.0,2,walking,0,2014-11-15 17:57:47.210,8,2014-11-15 17:52:35.410,3
2014-11-15 17:57:51.651,11436,381.2,40.10476,-88.22193,235.3824,0.15,201.0938,6,10,1416095871,0.2439575,1.043716,-0.1401825,42.01697,27.36335,-8.723602,249.177,252.2593,15,0.5602388,-0.09642401,-0.9176031,0.7075518,0.8426486,-1.262205,0.5903257,0.1493041,-0.8434519,0.04799196,0.01498057,-0.01229655,172.17.160.76,10.64.29.0,2,walking,0,2014-11-15 17:57:47.210,8,2014-11-15 17:52:35.410,3
2014-11-15 17:57:51.684,11437,381.2334,40.10476,-88.22193,235.3824,0.15,201.0938,6,10,1416095871,0.1456604,0.8634491,-0.1760254,41.22747,27.46661,-8.555573,250.6892,253.7715,15,0.452735,-0.958052,-1.192416,0.5545367,0.6810822,-1.271898,0.5478368,-0.8805275,-1.156546,-0.07710025,0.08317229,-0.05528782,172.17.160.76,10.64.29.0,2,walking,0,2014-11-15 17:57:47.210,8,2014-11-15 17:52:35.410,3
2014-11-15 17:57:51.718,11438,381.2667,40.10476,-88.22193,235.3824,0.15,201.0938,6,10,1416095871,0.1151123,0.917984,-0.305603,39.09926,28.15493,-8.757172,253.6823,256.7646,15,0.4929319,-0.5958605,-1.349881,0.4227507,0.5343354,-1.279061,0.538829,-0.4274076,-1.23586,-0.0008127675,-0.09429718,0.0714977,172.17.160.76,10.64.29.0,2,walking,0,2014-11-15 17:57:47.210,8,2014-11-15 17:52:35.410,3
2014-11-15 17:57:51.751,11439,381.3,40.10476,-88.22193,235.3824,0.15,201.0938,6,10,1416095871,0.1780243,0.6951752,-0.2638245,37.27998,28.67117,-8.723541,257.1438,260.2261,15,0.4661054,-0.5602779,-1.28272,0.2725188,0.3751614,-1.281981,0.5253149,-0.5517573,-1.381888,0.01074908,-0.04059806,-0.04059597,172.17.160.76,10.64.29.0,2,walking,0,2014-11-15 17:57:47.210,8,2014-11-15 17:52:35.410,3
2014-11-15 17:57:51.784,11440,381.3333,40.10476,-88.22193,235.3824,0.15,201.0938,6,10,1416095871,-0.009307861,0.8207092,-0.1414642,34.84284,29.39391,-8.353851,261.0671,264.1494,15,0.3081914,-0.4097492,-1.19854,0.08594736,0.1792344,-1.275029,0.5269169,-0.1746313,-1.110291,0.1260614,-0.2614037,0.02298006,172.17.160.76,10.64.29.0,2,walking,0,2014-11-15 17:57:47.210,8,2014-11-15 17:52:35.410,3
2014-11-15 17:57:51.818,11441,381.3667,40.10476,-88.22193,235.3824,0.15,201.0938,6,10,1416095871,0.0909729,0.7055817,-0.2855988,33.81307,29.87574,-8.01767,266.1201,269.2024,15,0.2483984,-0.8704569,-1.2846,-0.03713742,0.05113668,-1.266979,0.3415205,-0.6432101,-1.261734,-0.02459949,-0.1334922,0.1573095,172.17.160.76,10.64.29.0,2,walking,0,2014-11-15 17:57:47.210,8,2014-11-15 17:52:35.410,3
2014-11-15 17:57:51.851,11442,381.4,40.10476,-88.22193,235.3824,0.15,201.0938,6,10,1416095871,0.1782532,0.6525269,-0.2211304,31.3416,30.28872,-8.01767,269.6713,272.7536,15,0.1528468,0.1820292,-0.7936023,-0.2229308,-0.1519165,-1.249025,0.2578165,0.05977745,-0.899999,0.1649089,-0.3009105,0.01594427,172.17.160.76,10.64.29.0,2,walking,0,2014-11-15 17:57:47.210,8,2014-11-15 17:52:35.410,3
2014-11-15 17:57:51.885,11443,381.4333,40.10476,-88.22193,235.3824,0.15,201.0938,6,10,1416095871,-0.048172,0.7340393,-0.3162689,30.20884,30.73615,-7.58078,271.7121,274.7944,15,0.1481399,-0.09578698,-0.7175595,-0.2467107,-0.1723274,-1.245468,0.2192159,0.2498503,-0.7778446,0.1642431,-0.2971094,0.0248774,172.17.160.76,10.64.29.0,2,walking,0,2014-11-15 17:57:47.210,8,2014-11-15 17:52:35.410,3
2014-11-15 17:57:51.918,11444,381.4667,40.10476,-88.22193,235.3824,0.15,201.0938,6,10,1416095871,0.09391785,0.5729218,-0.2354126,29.07608,30.97705,-7.076569,274.5242,277.6065,15,-0.001784318,0.5005512,-0.6947511,-0.3464099,-0.2624773,-1.227918,0.1583753,0.3597193,-0.7250258,0.0583348,-0.2455933,0.1896901,172.17.160.76,10.64.29.0,2,walking,0,2014-11-15 17:57:47.210,8,2014-11-15 17:52:35.410,3
2014-11-15 17:57:51.950,11445,381.5,40.10476,-88.22193,235.3824,0.15,201.0938,6,10,1416095871,0.001098633,0.7766724,-0.2722015,28.11495,30.97705,-6.606049,276.7312,279.8135,15,-0.1926741,0.02333835,-0.4407321,-0.3978173,-0.2967615,-1.223531,-0.1291887,0.2809341,-0.4812846,0.2112603,-0.3123773,0.05083889,172.17.160.76,10.64.29.0,2,walking,0,2014-11-15 17:57:47.210,8,2014-11-15 17:52:35.410,3
2014-11-15 17:57:51.984,11446,381.5334,40.10476,-88.22193,235.3824,0.15,201.0938,6,10,1416095871,0.09147644,0.8091431,-0.1364136,27.66872,31.21796,-6.572418,277.5747,280.657,15,-0.2158599,0.4559726,-0.4192604,-0.4240346,-0.3189847,-1.223332,-0.1241431,0.1453736,-0.4215129,0.1078849,-0.1635669,0.05113537,172.17.160.76,10.64.29.0,2,walking,0,2014-11-15 17:57:47.210,8,2014-11-15 17:52:35.410,3
2014-11-15 17:57:52.018,11447,381.5667,40.10476,-88.22193,235.3824,0.15,201.0938,6,10,1416095871,-0.134201,0.9186096,-0.3510284,27.29114,31.25239,-6.404327,278.4716,281.5539,15,-0.3656781,0.03536039,0.01641626,-0.4762745,-0.3452349,-1.23019,-0.3896604,0.2739599,-0.01223264,0.3567952,-0.1153276,0.1703505,172.17.160.76,10.64.29.0,2,walking,0,2014-11-15 17:57:47.210,8,2014-11-15 17:52:35.410,3
2014-11-15 17:57:52.051,11448,381.6,40.10476,-88.22193,235.3824,0.15,201.0938,6,10,1416095871,0.07156372,0.8542175,-0.2663727,27.01653,31.73421,-5.799347,279.6373,282.7196,15,-0.4089137,0.349321,-0.0603182,-0.4801336,-0.3476436,-1.236821,-0.2993113,0.1031791,0.03217338,-0.02252459,-0.02613705,-0.04283679,172.17.160.76,10.64.29.0,2,walking,0,2014-11-15 17:57:47.210,8,2014-11-15 17:52:35.410,3
2014-11-15 17:57:52.084,11449,381.6334,40.10476,-88.22193,235.3824,0.15,201.0938,6,10,1416095871,-0.05397034,0.9680023,-0.315567,27.05085,31.56214,-5.563995,280.2116,283.2939,15,-0.3579685,-0.4235678,0.17107,-0.4964264,-0.3537729,-1.249553,-0.364563,-0.1485454,0.04170685,0.1809507,-0.09462611,0.0298202,172.17.160.76,10.64.29.0,2,walking,0,2014-11-15 17:57:47.210,8,2014-11-15 17:52:35.410,3
2014-11-15 17:57:52.118,11450,381.6667,40.10475,-88.22192,235.1128,0.39,145.5469,6,10,1416095872,-0.1065216,0.9001312,-0.1611328,26.70759,31.76863,-5.563995,280.199,283.2813,15,-0.5185079,0.07152505,0.1530487,-0.4936471,-0.3600467,-1.259779,-0.3295366,0.07751498,0.1499757,0.05384842,0.01597943,-0.02916252,172.17.160.76,10.64.29.0,2,walking,0,2014-11-15 17:57:47.210,8,2014-11-15 17:52:35.410,3
2014-11-15 17:57:52.151,11451,381.7,40.10475,-88.22192,235.1128,0.39,145.5469,6,10,1416095872,-0.271225,1.030182,-0.3486786,26.74191,31.87189,-5.530426,279.2193,282.3016,15,-0.3632677,-0.3480565,0.1799794,-0.4904696,-0.355934,-1.277738,-0.3737379,-0.3002305,0.2171482,0.1173585,-0.02886751,0.1752244,172.17.160.76,10.64.29.0,2,walking,0,2014-11-15 17:57:47.210,8,2014-11-15 17:52:35.410,3
2014-11-15 17:57:52.184,11452,381.7334,40.10475,-88.22192,235.1128,0.39,145.5469,6,10,1416095872,0.07350159,0.8530731,-0.1070709,26.9822,31.97512,-5.698517,277.7793,280.8616,15,-0.2749772,-0.115007,-0.05052709,-0.4903124,-0.3600771,-1.288312,-0.2000151,0.08677317,-0.02348235,-0.1534953,-0.00682905,-0.001844434,172.17.160.76,10.64.29.0,2,walking,0,2014-11-15 17:57:47.210,8,2014-11-15 17:52:35.410,3
2014-11-15 17:57:52.217,11453,381.7667,40.10475,-88.22192,235.1128,0.39,145.5469,6,10,1416095872,0.07240295,0.9122314,-0.1013794,27.1195,31.76863,-5.967438,277.0276,280.1099,15,-0.3801354,-0.3815239,0.108747,-0.496903,-0.3683808,-1.292302,-0.2430591,-0.2379704,0.02698128,0.1724977,-0.1083972,0.1493947,172.17.160.76,10.64.29.0,2,walking,0,2014-11-15 17:57:47.210,8,2014-11-15 17:52:35.410,3
2014-11-15 17:57:52.251,11454,381.8,40.10475,-88.22192,235.1128,0.39,145.5469,6,10,1416095872,-0.2427063,0.8737335,-0.1920471,27.05085,31.76863,-6.706879,275.5231,278.6054,15,-0.3111784,-0.2806434,0.2459512,-0.4779023,-0.3575782,-1.30844,-0.2971186,-0.0465562,0.326468,0.0094321,-0.01886683,0.1202866,172.17.160.76,10.64.29.0,2,walking,0,2014-11-15 17:57:47.210,8,2014-11-15 17:52:35.410,3
2014-11-15 17:57:52.285,11455,381.8333,40.10475,-88.22192,235.1128,0.39,145.5469,6,10,1416095872,0.1165466,0.7591248,-0.06492615,26.81057,31.73422,-7.27829,274.198,277.2803,15,-0.3270583,-0.3373367,0.194761,-0.4652951,-0.3500577,-1.314799,-0.2256526,-0.3128417,0.2451869,-0.1558675,-0.09367784,0.04580635,172.17.160.76,10.64.29.0,2,walking,0,2014-11-15 17:57:47.210,8,2014-11-15 17:52:35.410,3
2014-11-15 17:57:52.318,11456,381.8667,40.10475,-88.22192,235.1128,0.39,145.5469,6,10,1416095872,-0.1549988,1.03717,-0.1690826,27.1195,31.56214,-7.446381,272.3996,275.4819,15,-0.2659169,0.01780483,0.5137853,-0.4170327,-0.3065009,-1.338516,-0.3630291,0.169545,0.6632841,0.2194957,-0.1815029,0.2102979,172.17.160.76,10.64.29.0,2,walking,0,2014-11-15 17:57:47.210,8,2014-11-15 17:52:35.410,3
2014-11-15 17:57:52.351,11457,381.9,40.10475,-88.22192,235.1128,0.39,145.5469,6,10,1416095872,0.09416199,0.7931366,-0.1147156,27.46276,31.21798,-7.849701,270.2171,273.2994,15,-0.1940081,0.03359631,0.3575613,-0.3527201,-0.2412708,-1.349468,-0.1472404,-0.1212443,0.4412179,-0.2592994,0.08486398,-0.05485296,172.17.160.76,10.64.29.0,2,walking,0,2014-11-15 17:57:47.210,8,2014-11-15 17:52:35.410,3
2014-11-15 17:57:52.385,11458,381.9333,40.10475,-88.22192,235.1128,0.39,145.5469,6,10,1416095872,0.03594971,0.8964386,-0.04153442,28.42389,31.35565,-8.051422,268.3369,271.4193,15,-0.186588,0.2455536,0.4255231,-0.3031635,-0.1912852,-1.355551,-0.1328835,0.320375,0.3882925,0.1347694,-0.1837874,0.0949759,172.17.160.76,10.64.29.0,2,walking,0,2014-11-15 17:57:47.210,8,2014-11-15 17:52:35.410,3
2014-11-15 17:57:52.418,11459,381.9667,40.10475,-88.22192,235.1128,0.39,145.5469,6,10,1416095872,0.01823425,1.072083,-0.1640778,28.49254,31.21799,-7.984161,267.8339,270.9162,15,-0.2961645,-0.0344155,0.6325095,-0.2435765,-0.1226825,-1.361467,-0.1568678,0.164152,0.5244907,0.06137971,-0.08173189,0.1647077,172.17.160.76,10.64.29.0,2,walking,0,2014-11-15 17:57:47.210,8,2014-11-15 17:52:35.410,3
2014-11-15 17:57:52.450,11460,382,40.10475,-88.22192,235.1128,0.39,145.5469,6,10,1416095872,-0.03507996,0.9899902,-0.09353638,29.96855,31.04591,-7.41275,267.4196,270.502,15,-0.04484071,0.1636065,0.4171304,-0.125745,-0.002127722,-1.36986,-0.04709572,0.2365692,0.5531209,0.01865892,0.09220241,0.03550877,172.17.160.76,10.64.29.0,2,walking,0,2014-11-15 17:57:47.210,8,2014-11-15 17:52:35.410,3
2014-11-15 17:57:52.484,11461,382.0334,40.10475,-88.22192,235.1128,0.39,145.5469,6,10,1416095872,0.1743927,0.4642792,-0.1334381,30.51777,30.97708,-8.017792,265.9198,269.0021,15,-0.285615,0.124482,0.7097335,-0.03722201,0.09410572,-1.368882,-0.09072901,0.2012689,0.5191309,0.1064758,-0.3793426,0.1084259,172.17.160.76,10.64.29.0,2,walking,0,2014-11-15 17:57:47.210,8,2014-11-15 17:52:35.410,3
2014-11-15 17:57:52.518,11462,382.0667,40.10475,-88.22192,235.1128,0.39,145.5469,6,10,1416095872,-0.1253662,1.55246,0.009140015,31.30727,30.52966,-8.051422,264.6993,267.7816,10,-0.05752215,0.3970171,0.7931101,0.09884059,0.2373408,-1.371402,-0.2007078,0.5876783,1.028966,0.1866744,-0.1111071,0.07127694,172.17.160.76,10.64.29.0,2,walking,0,2014-11-15 17:57:47.210,8,2014-11-15 17:52:35.410,3
2014-11-15 17:57:52.551,11463,382.1,40.10475,-88.22192,235.1128,0.39,145.5469,6,10,1416095872,0.07421875,0.4776459,-0.2180481,32.64598,30.2199,-8.353973,262.3129,265.3952,10,0.158592,0.1554514,0.4757687,0.1894259,0.3371086,-1.361055,0.3081065,0.3295638,0.507698,-0.07460382,0.4168127,0.1384284,172.17.160.76,10.64.29.0,2,walking,0,2014-11-15 17:57:47.210,8,2014-11-15 17:52:35.410,3
2014-11-15 17:57:52.584,11464,382.1334,40.10475,-88.22192,235.1128,0.39,145.5469,6,10,1416095872,0.004302979,1.315598,-0.1150513,33.22952,30.11665,-8.320343,261.6587,264.741,10,-0.11595,0.2703806,1.046356,0.2751188,0.4275205,-1.350351,-0.1007783,0.2668177,1.03964,0.07669667,-0.749085,-0.007589586,172.17.160.76,10.64.29.0,2,walking,0,2014-11-15 17:57:47.210,8,2014-11-15 17:52:35.410,3
2014-11-15 17:57:52.618,11465,382.1667,40.10475,-88.22192,235.1128,0.39,145.5469,6,10,1416095872,-0.03210449,1.078354,-0.2319336,35.46071,29.25626,-8.017853,260.8285,263.9108,10,0.1905564,-0.2171302,0.3866454,0.416528,0.5746061,-1.329323,0.4301915,0.1221185,0.6239727,-0.006038282,0.5801303,0.4202586,172.17.160.76,10.64.29.0,2,walking,0,2014-11-15 17:57:47.210,8,2014-11-15 17:52:35.410,3
2014-11-15 17:57:52.651,11466,382.2,40.10475,-88.22192,235.1128,0.39,145.5469,6,10,1416095872,0.3110962,0.7533569,-0.09320068,37.45162,28.4991,-8.555634,256.5906,259.6729,10,-0.2684666,0.1013594,1.026931,0.4459015,0.6009328,-1.314758,0.007716942,-0.1962675,0.6482921,-0.1093617,-0.371118,-0.06345638,172.17.160.76,10.64.29.0,2,walking,0,2014-11-15 17:57:47.210,8,2014-11-15 17:52:35.410,3
2014-11-15 17:57:52.684,11467,382.2334,40.10475,-88.22192,235.1128,0.39,145.5469,6,10,1416095872,0.2747192,1.48465,0.02346802,38.58437,27.91402,-8.253143,256.4689,259.5512,10,0.3168634,0.1525437,0.6641045,0.5447771,0.699065,-1.301529,-0.09503701,0.287075,0.9081007,0.1399085,-0.2106092,0.1104266,172.17.160.76,10.64.29.0,2,walking,0,2014-11-15 17:57:47.210,8,2014-11-15 17:52:35.410,3
2014-11-15 17:57:52.718,11468,382.2667,40.10475,-88.22192,235.1128,0.39,145.5469,6,10,1416095872,0.09779358,0.3629608,-0.3924255,39.61415,27.29454,-9.194305,253.4384,256.5208,10,0.06352385,-0.09101672,0.4758883,0.5812246,0.7405875,-1.282072,0.4104881,0.2868227,0.482675,0.08260629,0.5260417,0.2336188,172.17.160.76,10.64.29.0,2,walking,0,2014-11-15 17:57:47.210,8,2014-11-15 17:52:35.410,3
2014-11-15 17:57:52.751,11469,382.3,40.10475,-88.22192,235.1128,0.39,145.5469,6,10,1416095872,0.1331635,1.261993,-0.1685486,40.78123,26.67504,-9.799347,251.822,254.9043,10,0.0331963,-0.2665308,0.5897176,0.6469479,0.7977827,-1.262218,-0.130983,-0.2236037,0.6783887,-0.01361309,-0.4140854,-0.06937321,172.17.160.76,10.64.29.0,2,walking,0,2014-11-15 17:57:47.210,8,2014-11-15 17:52:35.410,3
2014-11-15 17:57:52.784,11470,382.3333,40.10475,-88.22192,235.1128,0.39,145.5469,6,10,1416095872,0.09281921,0.6501465,-0.3392944,41.29612,26.77829,-10.2363,250.8728,253.9551,10,0.3425949,0.1207573,0.2541087,0.6652839,0.8123243,-1.252124,0.3058843,-0.02047353,0.4474808,0.05072759,0.3698973,0.08945825,172.17.160.76,10.64.29.0,2,walking,0,2014-11-15 17:57:47.210,8,2014-11-15 17:52:35.410,3
2014-11-15 17:57:52.818,11471,382.3667,40.10475,-88.22192,235.1128,0.39,145.5469,6,10,1416095872,0.152298,0.8939667,-0.4350281,42.66916,26.15881,-10.37076,249.554,252.6363,10,-0.2117075,-0.4928302,0.4365896,0.6646371,0.8135352,-1.237993,-0.0404055,-0.2262219,0.3362383,-0.1903569,-0.3443307,-0.3246858,172.17.160.76,10.64.29.0,2,walking,0,2014-11-15 17:57:47.210,8,2014-11-15 17:52:35.410,3
2014-11-15 17:57:52.851,11472,382.4,40.10475,-88.22192,235.1128,0.39,145.5469,6,10,1416095872,0.6193542,1.352325,0.1086578,43.1154,25.91788,-10.94223,248.9446,252.0269,10,0.211765,-0.2008902,0.4280494,0.6887455,0.8283283,-1.232621,-0.05174231,-0.3927337,0.5179787,-0.09214794,-0.04939503,-0.2107183,172.17.160.76,10.64.29.0,2,walking,0,2014-11-15 17:57:47.210,8,2014-11-15 17:52:35.410,3
2014-11-15 17:57:52.884,11473,382.4333,40.10475,-88.22192,235.1128,0.39,145.5469,6,10,1416095872,0.00050354,0.5611572,-0.6764374,43.49299,25.33282,-12.11862,246.8412,249.9235,10,-0.4721036,-0.6990761,0.1233414,0.6577047,0.7927351,-1.214332,0.1991316,-0.5624757,0.004511018,-0.338554,-0.1106443,-0.2185794,172.17.160.76,10.64.29.0,2,walking,0,2014-11-15 17:57:47.210,8,2014-11-15 17:52:35.410,3
2014-11-15 17:57:52.918,11474,382.4667,40.10475,-88.22192,235.1128,0.39,145.5469,6,10,1416095872,0.5284424,1.337814,0.06773376,44.24816,25.0575,-14.33707,244.8188,247.9011,10,-0.17404,-0.4037816,-0.01208942,0.6716539,0.7930299,-1.215602,-0.4057788,-0.6313069,0.1390989,-0.2472782,-0.3764218,-0.4324091,172.17.160.76,10.64.29.0,2,walking,0,2014-11-15 17:57:47.210,8,2014-11-15 17:52:35.410,3
2014-11-15 17:57:52.951,11475,382.5,40.10475,-88.22192,235.1128,0.39,145.5469,6,10,1416095872,-0.0118866,0.8757172,-0.6531982,45.03765,24.81659,-15.7825,243.1021,246.1844,10,-0.1603532,-0.4454132,-0.3191282,0.6727478,0.7808542,-1.219953,0.1099192,-0.1475533,-0.3549355,0.3294317,0.4996527,0.3293169,172.17.160.76,10.64.29.0,2,walking,0,2014-11-15 17:57:47.210,8,2014-11-15 17:52:35.410,3
2014-11-15 17:57:52.984,11476,382.5334,40.10475,-88.22192,235.1128,0.39,145.5469,6,10,1416095872,0.2362061,0.6724701,-0.3465729,45.20928,25.0575,-16.89169,242.0528,245.1351,10,-0.7788287,-0.7241614,0.01820963,0.6599063,0.7594137,-1.229099,-0.4367757,-0.5038756,-0.1552062,-0.2425924,-0.0664702,-0.4101802,172.17.160.76,10.64.29.0,2,walking,0,2014-11-15 17:57:47.210,8,2014-11-15 17:52:35.410,3
2014-11-15 17:57:53.018,11477,382.5667,40.10475,-88.22192,235.1128,0.39,145.5469,6,10,1416095872,0.3779602,1.388824,-0.1113281,45.51822,25.43609,-18.47153,241.1272,244.2095,10,-0.1029703,-0.5205671,-0.2772796,0.7077658,0.7818385,-1.246612,-0.2834077,-0.5003975,-0.1069341,0.2995513,0.1471209,0.1441604,172.17.160.76,10.64.29.0,2,walking,0,2014-11-15 17:57:47.210,8,2014-11-15 17:52:35.410,3
2014-11-15 17:57:53.051,11478,382.6,40.10475,-88.22192,235.1128,0.39,145.5469,6,10,1416095872,-0.1440735,0.5077057,-0.8416595,45.24361,26.12442,-20.15219,241.7374,244.8197,10,-0.5770774,-0.6354989,-0.04789083,0.6875637,0.7451283,-1.257365,-0.2692721,-0.5702969,-0.2166879,-0.1275671,0.09176374,-0.1667987,172.17.160.76,10.64.29.0,2,walking,0,2014-11-15 17:57:47.210,8,2014-11-15 17:52:35.410,3
2014-11-15 17:57:53.084,11479,382.6334,40.10475,-88.22192,235.1128,0.39,145.5469,6,10,1416095872,0.4640808,1.158966,-0.1249847,45.00333,26.15884,-20.85806,241.3327,244.415,10,-0.5770926,-0.6045876,-0.03499021,0.6958152,0.7472227,-1.261213,-0.5107547,-0.567732,-0.03213383,-0.2579529,-0.2802346,-0.4579638,172.17.160.76,10.64.29.0,2,walking,0,2014-11-15 17:57:47.210,8,2014-11-15 17:52:35.410,3
2014-11-15 17:57:53.118,11480,382.6667,40.10475,-88.22192,235.4067,0,112.1484,6,10,1416095873,0.0620575,1.009094,-0.4373169,44.24816,26.98483,-22.20267,241.4569,244.5392,10,0.08591784,-0.4785647,-0.3319013,0.723774,0.752175,-1.276302,-0.07710425,-0.5891849,-0.314102,0.197822,0.3392089,0.3024769,172.17.160.76,10.64.29.0,2,walking,0,2014-11-15 17:57:47.210,8,2014-11-15 17:52:35.410,3
2014-11-15 17:57:53.151,11481,382.7,40.10475,-88.22192,235.4067,0,112.1484,6,10,1416095873,0.1326752,0.8317261,-0.3318481,43.73327,26.81274,-23.58078,240.3578,243.4401,10,-0.2889671,-0.3829514,-0.07523829,0.688667,0.7098557,-1.281375,-0.0976484,-0.1721962,-0.1122707,-0.2961688,-0.1542101,-0.4817504,172.17.160.76,10.64.29.0,2,walking,0,2014-11-15 17:57:47.210,8,2014-11-15 17:52:35.410,3
2014-11-15 17:57:53.184,11482,382.7334,40.10475,-88.22192,235.4067,0,112.1484,6,10,1416095873,0.2192535,1.251297,-0.1386566,43.66462,27.08806,-24.18582,240.7041,243.7864,10,0.3635361,-0.3126658,-0.4371539,0.6905132,0.699944,-1.28626,0.004647742,-0.4627693,-0.1715041,0.1602671,-0.008269093,0.04491104,172.17.160.76,10.64.29.0,2,walking,0,2014-11-15 17:57:47.210,8,2014-11-15 17:52:35.410,3
2014-11-15 17:57:53.218,11483,382.7667,40.10475,-88.22192,235.4067,0,112.1484,6,10,1416095873,0.02607727,0.7745667,-0.5219269,43.2527,27.08806,-25.59756,238.2326,241.3149,10,0.2182807,-0.2086501,-0.3203607,0.6360134,0.6399988,-1.284789,0.4459518,-0.111029,-0.4218141,0.05077071,0.291919,0.08763398,172.17.160.76,10.64.29.0,2,walking,0,2014-11-15 17:57:47.210,8,2014-11-15 17:52:35.410,3
2014-11-15 17:57:53.251,11484,382.8,40.10475,-88.22192,235.4067,0,112.1484,6,10,1416095873,0.2402344,0.9911652,-0.2132721,42.63483,27.77639,-27.41269,237.7444,240.8267,10,0.02054842,-0.6788925,-0.270084,0.6005744,0.6050644,-1.282898,0.2846013,-0.1408853,-0.3046042,-0.1523373,-0.10667,-0.2341532,172.17.160.76,10.64.29.0,2,walking,0,2014-11-15 17:57:47.210,8,2014-11-15 17:52:35.410,3
2014-11-15 17:57:53.284,11485,382.8333,40.10475,-88.22192,235.4067,0,112.1484,6,10,1416095873,0.1112823,1.054657,-0.2309265,42.29158,27.36339,-28.15219,235.2219,238.3042,10,0.353255,-0.01232777,-0.486485,0.5316692,0.5160401,-1.28171,0.4321864,-0.1176462,-0.4547036,0.2339349,0.3277503,0.2429341,172.17.160.76,10.64.29.0,2,walking,0,2014-11-15 17:57:47.210,8,2014-11-15 17:52:35.410,3
2014-11-15 17:57:53.318,11486,382.8667,40.10475,-88.22192,235.4067,0,112.1484,6,10,1416095873,0.2746887,1.02092,-0.1260986,41.91399,26.98482,-29.93362,234.484,237.5663,10,-0.1541653,-0.9143831,-0.3693876,0.469799,0.4566579,-1.277961,0.2593306,-0.1896861,-0.4321415,-0.01600605,0.09722771,0.02816199,172.17.160.76,10.64.29.0,2,walking,0,2014-11-15 17:57:47.210,8,2014-11-15 17:52:35.410,3
2014-11-15 17:57:53.351,11487,382.9,40.10475,-88.22192,235.4067,0,112.1484,6,10,1416095873,0.1310577,1.215775,-0.1718903,41.2618,26.67508,-31.11008,233.7867,236.869,10,0.1035469,-0.003063168,-0.4005826,0.4248042,0.3896152,-1.283399,0.09589322,-0.2782085,-0.3449543,0.1670224,0.06193496,0.1361151,172.17.160.76,10.64.29.0,2,walking,0,2014-11-15 17:57:47.210,8,2014-11-15 17:52:35.410,3
2014-11-15 17:57:53.385,11488,382.9333,40.10475,-88.22192,235.4067,0,112.1484,6,10,1416095873,0.0652771,0.822525,-0.39888,41.02151,26.91599,-31.68149,233.7222,236.8045,10,-0.2469991,-0.3179457,-0.1886317,0.3733225,0.3465266,-1.283272,-0.02030589,0.08274188,-0.2534541,-0.03486567,0.09117629,-0.2682658,172.17.160.76,10.64.29.0,2,walking,0,2014-11-15 17:57:47.210,8,2014-11-15 17:52:35.410,3
2014-11-15 17:57:53.418,11489,382.9667,40.10475,-88.22192,235.4067,0,112.1484,6,10,1416095873,0.2146454,1.182983,-0.1070557,40.57528,26.7439,-32.58902,233.6613,236.7436,10,-0.2265833,-0.2576752,-0.2266041,0.3633936,0.3263134,-1.291148,-0.2416237,-0.4350665,-0.1714951,0.01592238,-0.07730253,0.03760572,172.17.160.76,10.64.29.0,2,walking,0,2014-11-15 17:57:47.210,8,2014-11-15 17:52:35.410,3
2014-11-15 17:57:53.451,11490,383,40.10475,-88.22192,235.4067,0,112.1484,6,10,1416095873,0.08700562,1.085007,-0.3426514,40.4723,27.60431,-32.62253,234.4317,237.514,15,-0.196676,0.1680055,-0.137433,0.3465852,0.3092517,-1.297403,-0.1238115,0.2012049,-0.1908769,0.06746934,0.3005523,0.1279961,172.17.160.76,10.64.29.0,2,walking,0,2014-11-15 17:57:47.210,8,2014-11-15 17:52:35.410,3
2014-11-15 17:57:53.485,11491,383.0334,40.10475,-88.22192,235.4067,0,112.1484,6,10,1416095873,0.04507446,0.8555603,-0.368042,40.74691,28.0173,-32.62253,234.859,237.9413,15,-0.4263007,-0.03842409,-0.04955717,0.3450194,0.3141537,-1.304046,-0.3130116,0.1450767,-0.03654921,-0.09643903,-0.06390627,-0.2090349,172.17.160.76,10.64.29.0,2,walking,0,2014-11-15 17:57:47.210,8,2014-11-15 17:52:35.410,3
2014-11-15 17:57:53.518,11492,383.0667,40.10475,-88.22192,235.4067,0,112.1484,6,10,1416095873,0.1478882,1.158951,-0.1472778,40.71258,28.94653,-31.58066,235.8328,238.9151,15,-0.2322213,0.1338041,-0.02496287,0.3551693,0.3251593,-1.313796,-0.2779462,0.06975788,-0.01797056,0.05501479,0.02451188,0.04943981,172.17.160.76,10.64.29.0,2,walking,0,2014-11-15 17:57:47.210,8,2014-11-15 17:52:35.410,3
2014-11-15 17:57:53.551,11493,383.1,40.10475,-88.22192,235.4067,0,112.1484,6,10,1416095873,-0.01564026,0.840332,-0.3204346,41.05584,28.60236,-31.31168,235.804,238.8863,15,-0.364652,0.156824,0.0605728,0.3614633,0.3366339,-1.319411,-0.1660362,0.2262635,0.03020115,0.06572456,0.190382,0.08750619,172.17.160.76,10.64.29.0,2,walking,0,2014-11-15 17:57:47.210,8,2014-11-15 17:52:35.410,3
2014-11-15 17:57:53.584,11494,383.1334,40.10475,-88.22192,235.4067,0,112.1484,6,10,1416095873,0.2033386,1.13266,-0.09591675,40.98719,28.60236,-31.11008,235.7912,238.8735,15,-0.3657924,-0.04419889,0.03404292,0.3897774,0.3716023,-1.329725,-0.3773914,0.04500717,0.07568169,-0.1023301,-0.1307506,-0.09798609,172.17.160.76,10.64.29.0,2,walking,0,2014-11-15 17:57:47.210,8,2014-11-15 17:52:35.410,3
2014-11-15 17:57:53.618,11495,383.1667,40.10475,-88.22192,235.4067,0,112.1484,6,10,1416095873,-0.01037598,0.9374847,-0.4008179,41.12449,29.08419,-31.64786,234.8588,237.9411,15,-0.2530237,0.03191639,0.1306163,0.4181137,0.4009343,-1.339267,-0.190826,0.1066482,0.08910682,0.05320528,0.1654927,0.05692653,172.17.160.76,10.64.29.0,2,walking,0,2014-11-15 17:57:47.210,8,2014-11-15 17:52:35.410,3
2014-11-15 17:57:53.652,11496,383.2,40.10475,-88.22192,235.4067,0,112.1484,6,10,1416095873,0.01651001,0.912735,-0.2713776,40.95287,29.39394,-31.47983,234.6329,237.7152,15,-0.2564209,-0.04955877,0.1758437,0.4341624,0.4189999,-1.341587,-0.1867402,0.09963898,0.1463746,-0.01979162,0.07862861,-0.06489248,172.17.160.76,10.64.29.0,2,walking,0,2014-11-15 17:57:47.210,8,2014-11-15 17:52:35.410,3
2014-11-15 17:57:53.685,11497,383.2334,40.10475,-88.22192,235.4067,0,112.1484,6,10,1416095873,0.04269409,1.13205,-0.3239136,41.22747,30.21992,-31.21091,234.5666,237.6489,15,0.05914588,0.1706255,0.2267727,0.4805956,0.4676072,-1.343346,-0.003705456,0.2132131,0.2832183,0.2077603,0.1883228,0.1389251,172.17.160.76,10.64.29.0,2,walking,0,2014-11-15 17:57:47.210,8,2014-11-15 17:52:35.410,3
2014-11-15 17:57:53.718,11498,383.2667,40.10475,-88.22192,235.4067,0,112.1484,6,10,1416095873,-0.03031921,0.914444,-0.2153778,41.29613,29.94458,-30.53867,235.2229,238.3052,15,-0.05102537,-0.03174115,0.2972389,0.5052642,0.4967966,-1.336352,0.08772952,0.06047991,0.3255923,-0.06802421,0.1594061,-0.1196929,172.17.160.76,10.64.29.0,2,walking,0,2014-11-15 17:57:47.210,8,2014-11-15 17:52:35.410,3
2014-11-15 17:57:53.751,11499,383.3,40.10475,-88.22192,235.4067,0,112.1484,6,10,1416095873,0.2710876,1.27272,-0.2091827,42.22292,29.22184,-30.37057,235.3526,238.4349,15,-0.07002995,0.3627732,0.3365394,0.5597393,0.5540285,-1.331369,-0.08377697,0.2720947,0.3369021,0.05269309,0.03466001,0.1300928,172.17.160.76,10.64.29.0,2,walking,0,2014-11-15 17:57:47.210,8,2014-11-15 17:52:35.410,3
2014-11-15 17:57:53.785,11500,383.3333,40.10475,-88.22192,235.4067,0,112.1484,6,10,1416095873,0.03103638,0.9134827,-0.3190918,42.36023,28.53352,-29.63107,235.382,238.4643,15,-0.1185509,0.1320848,0.4596997,0.6083288,0.6162297,-1.322535,0.007744148,0.285223,0.3928869,0.02361758,0.2201579,-0.09488757,172.17.160.76,10.64.29.0,2,walking,0,2014-11-15 17:57:47.210,8,2014-11-15 17:52:35.410,3
2014-11-15 17:57:53.818,11501,383.3667,40.10475,-88.22192,235.4067,0,112.1484,6,10,1416095873,0.1851501,1.100571,-0.1234741,42.9781,28.0517,-28.15213,235.7983,238.8806,15,-0.1438728,0.3166786,0.4193688,0.6393573,0.6504292,-1.317747,-0.05226959,0.1998051,0.4754574,-0.1205621,-0.0546708,-0.1198513,172.17.160.76,10.64.29.0,2,walking,0,2014-11-15 17:57:47.210,8,2014-11-15 17:52:35.410,3
2014-11-15 17:57:53.851,11502,383.4,40.10475,-88.22192,235.4067,0,112.1484,6,10,1416095873,0.2340088,1.091156,-0.09352112,43.14973,27.60429,-26.5723,235.6916,238.7739,15,0.0138495,0.1921796,0.4053848,0.694801,0.7192644,-1.306778,0.1047057,0.4322122,0.4463718,0.1472079,0.2526989,0.1250756,172.17.160.76,10.64.29.0,2,walking,0,2014-11-15 17:57:47.210,8,2014-11-15 17:52:35.410,3
2014-11-15 17:57:53.884,11503,383.4333,40.10475,-88.22192,235.4067,0,112.1484,6,10,1416095873,0.04832458,0.9592743,-0.1238251,43.35568,27.3978,-26.03452,236.1673,239.2496,15,-0.2576196,-0.3111179,0.1532412,0.7228608,0.7545078,-1.29682,-0.03588409,0.04869905,0.3058245,0.0486932,0.1284533,0.1036122,172.17.160.76,10.64.29.0,2,walking,0,2014-11-15 17:57:47.210,8,2014-11-15 17:52:35.410,3
2014-11-15 17:57:53.918,11504,383.4667,40.10475,-88.22192,235.4067,0,112.1484,6,10,1416095873,0.2874603,1.163025,-0.332077,44.14518,27.36339,-24.3876,237.188,240.2703,15,-0.05317214,0.2296524,0.01520772,0.7569754,0.7786841,-1.301731,-0.1767754,-0.04183139,-0.01363089,-0.00437715,0.09039312,0.1264233,172.17.160.76,10.64.29.0,2,walking,0,2014-11-15 17:57:47.210,8,2014-11-15 17:52:35.410,3
2014-11-15 17:57:53.951,11505,383.5,40.10475,-88.22192,235.4067,0,112.1484,6,10,1416095873,0.1477203,0.9451752,-0.4252777,44.28249,27.22573,-22.63974,237.9624,241.0447,15,0.3012006,0.4567358,0.2793856,0.750021,0.7936188,-1.293181,0.3592773,0.7152712,0.2356739,0.07782993,0.08253889,-0.1182323,172.17.160.76,10.64.29.0,2,walking,0,2014-11-15 17:57:47.210,8,2014-11-15 17:52:35.410,3
2014-11-15 17:57:53.984,11506,383.5334,40.10475,-88.22192,235.4067,0,112.1484,6,10,1416095873,0.3301239,1.098724,-0.1581421,44.07653,27.36339,-21.83304,238.5776,241.6599,15,0.3457284,0.2007624,0.2959161,0.7460482,0.7993939,-1.283818,0.3672766,0.3354625,0.3143164,-0.02109317,-0.08038033,-0.116101,172.17.160.76,10.64.29.0,2,walking,0,2014-11-15 17:57:47.210,8,2014-11-15 17:52:35.410,3
2014-11-15 17:57:54.018,11507,383.5667,40.10475,-88.22192,235.4067,0,112.1484,6,10,1416095873,0.1031952,1.001633,-0.1933136,44.45411,26.70949,-20.1188,240.1284,243.2107,15,0.4800348,0.2028684,0.3017932,0.7253388,0.792729,-1.260661,0.6082025,0.2917031,0.3036304,0.03689599,0.1856472,0.03737843,172.17.160.76,10.64.29.0,2,walking,0,2014-11-15 17:57:47.210,8,2014-11-15 17:52:35.410,3
2014-11-15 17:57:54.051,11508,383.6,40.10475,-88.22192,235.4067,0,112.1484,6,10,1416095873,0.2172089,0.8822174,-0.1845551,44.41979,26.39974,-19.14401,241.0819,244.1642,15,0.384344,0.1586307,0.2063851,0.7144477,0.7873071,-1.249057,0.4761038,0.1946567,0.2484168,-0.1208302,0.0529457,0.02985813,172.17.160.76,10.64.29.0,2,walking,0,2014-11-15 17:57:47.210,8,2014-11-15 17:52:35.410,3
2014-11-15 17:57:54.084,11509,383.6334,40.10475,-88.22192,235.4067,0,112.1484,6,10,1416095873,0.1810303,1.006866,-0.1883545,45.1063,25.91792,-17.86667,242.6785,245.7608,15,0.3807692,0.1430693,-0.02614798,0.6890545,0.7760206,-1.232268,0.4533218,0.3643884,0.0689439,0.05025037,0.04731029,0.02915078,172.17.160.76,10.64.29.0,2,walking,0,2014-11-15 17:57:47.210,8,2014-11-15 17:52:35.410,3
2014-11-15 17:57:54.118,11510,383.6667,40.10475,-88.22191,235.3185,0.27,181.0547,6,10,1416095874,0.2172089,0.7567291,-0.3884277,44.969,25.36726,-17.53067,243.0518,246.1341,15,0.3841823,0.3437395,-0.04633368,0.6613472,0.7574637,-1.22272,0.4472031,0.3083371,-0.03747663,-0.05332631,0.0668359,0.0594752,172.17.160.76,10.64.29.0,2,walking,0,2014-11-15 17:57:47.210,8,2014-11-15 17:52:35.410,3
2014-11-15 17:57:54.151,11511,383.7,40.10475,-88.22191,235.3185,0.27,181.0547,6,10,1416095874,0.3785095,1.046585,-0.1077576,45.31226,24.67894,-16.65677,244.4087,247.491,15,0.4934891,0.3034097,0.108021,0.6312066,0.7489778,-1.209164,0.436176,0.5541143,0.1464337,-0.02369108,-0.1785915,-0.1293089,172.17.160.76,10.64.29.0,2,walking,0,2014-11-15 17:57:47.210,8,2014-11-15 17:52:35.410,3
2014-11-15 17:57:54.184,11512,383.7334,40.10475,-88.22191,235.3185,0.27,181.0547,6,10,1416095874,0.1007233,0.7821503,-0.3039398,45.51822,24.67894,-16.05173,245.1754,248.2577,15,0.3921699,0.1609119,0.08642038,0.609178,0.7404379,-1.194782,0.5842945,0.2263033,0.08364824,0.1307816,0.1164493,0.1633113,172.17.160.76,10.64.29.0,2,walking,0,2014-11-15 17:57:47.210,8,2014-11-15 17:52:35.410,3
2014-11-15 17:57:54.218,11513,383.7667,40.10475,-88.22191,235.3185,0.27,181.0547,6,10,1416095874,0.3603973,0.9463806,-0.201889,45.07198,24.71336,-14.53915,247.4058,250.4881,15,0.3153684,0.5650749,-0.1489357,0.5840578,0.7302669,-1.178888,0.3523172,0.6128702,0.04197018,-0.1122562,-0.1612729,-0.01952378,172.17.160.76,10.64.29.0,2,walking,0,2014-11-15 17:57:47.210,8,2014-11-15 17:52:35.410,3
2014-11-15 17:57:54.251,11514,383.8,40.10475,-88.22191,235.3185,0.27,181.0547,6,10,1416095874,0.2086945,0.8798828,-0.3382568,44.8317,24.61011,-13.56442,250.702,253.7843,15,0.1842178,-0.06397552,-0.3003646,0.5591562,0.7250059,-1.173229,0.3273368,0.3707692,-0.2203359,0.06539109,0.01351092,-0.04043052,172.17.160.76,10.64.29.0,2,walking,0,2014-11-15 17:57:47.210,8,2014-11-15 17:52:35.410,3
2014-11-15 17:57:54.284,11515,383.8333,40.10475,-88.22191,235.3185,0.27,181.0547,6,10,1416095874,0.1835022,0.844162,-0.3590698,44.41979,24.47244,-13.3627,251.6723,254.7546,15,0.1149956,-0.1130922,-0.3364545,0.5304858,0.6960297,-1.173281,0.2087749,-0.1715461,-0.2821908,-0.04268182,-0.06709093,-0.1113517,172.17.160.76,10.64.29.0,2,walking,0,2014-11-15 17:57:47.210,8,2014-11-15 17:52:35.410,3
2014-11-15 17:57:54.318,11516,383.8667,40.10475,-88.22191,235.3185,0.27,181.0547,6,10,1416095874,0.2737274,1.080856,-0.27771,44.45411,24.36919,-12.85855,252.7671,255.8494,15,0.3821522,0.06189612,-0.505309,0.4872497,0.6609946,-1.173812,0.3693651,0.254529,-0.4100463,0.06598613,0.1199137,0.01116905,172.17.160.76,10.64.29.0,2,walking,0,2014-11-15 17:57:47.210,8,2014-11-15 17:52:35.410,3
2014-11-15 17:57:54.351,11517,383.9,40.10475,-88.22191,235.3185,0.27,181.0547,6,10,1416095874,0.1082611,0.7710419,-0.4178162,43.59597,24.61011,-12.556,254.2791,257.3614,15,0.4536663,0.02118598,-0.545066,0.4338327,0.613584,-1.170974,0.5400108,0.01471888,-0.4968668,0.03894343,0.09254169,-0.06370745,172.17.160.76,10.64.29.0,2,walking,0,2014-11-15 17:57:47.210,8,2014-11-15 17:52:35.410,3
2014-11-15 17:57:54.384,11518,383.9333,40.10475,-88.22191,235.3185,0.27,181.0547,6,10,1416095874,0.2207336,1.015945,-0.3339233,43.04675,24.95428,-12.4888,255.2176,258.2999,15,0.4187506,0.01947783,-0.6330472,0.3780268,0.5651926,-1.167514,0.462441,0.1046151,-0.557669,-0.1019211,-0.1487359,-0.08640663,172.17.160.76,10.64.29.0,2,walking,0,2014-11-15 17:57:47.210,8,2014-11-15 17:52:35.410,3
2014-11-15 17:57:54.418,11519,383.9667,40.10475,-88.22191,235.3185,0.27,181.0547,6,10,1416095874,0.117157,0.874527,-0.4236755,42.01698,25.36726,-12.21982,257.3321,260.4144,15,0.4381763,-0.2536602,-0.7810428,0.2899384,0.480887,-1.163781,0.5407577,-0.2639472,-0.8157203,-0.007838485,0.1094037,0.00583442,172.17.160.76,10.64.29.0,2,walking,0,2014-11-15 17:57:47.210,8,2014-11-15 17:52:35.410,3
2014-11-15 17:57:54.450,11520,384,40.10475,-88.22191,235.3185,0.27,181.0547,6,10,1416095874,0.1297455,0.8103027,-0.4096375,40.84989,26.0556,-11.54758,261.2705,264.3528,15,0.3614876,-0.1803344,-0.7846155,0.2204092,0.4110852,-1.159697,0.5203264,-0.122971,-0.7214912,-0.04253197,-0.04215495,-0.05735099,172.17.160.76,10.64.29.0,2,walking,0,2014-11-15 17:57:47.210,8,2014-11-15 17:52:35.410,3
2014-11-15 17:57:54.484,11521,384.0334,40.10475,-88.22191,235.3185,0.27,181.0547,6,10,1416095874,0.1302032,0.9222107,-0.3343048,40.47231,26.15884,-11.31229,261.8699,264.9522,15,0.3057559,-0.6128573,-0.7962378,0.1552008,0.348254,-1.155822,0.3732787,-0.196529,-0.7627258,-0.007837935,-0.1048239,-0.03067312,172.17.160.76,10.64.29.0,2,walking,0,2014-11-15 17:57:47.210,8,2014-11-15 17:52:35.410,3
2014-11-15 17:57:54.518,11522,384.0667,40.10475,-88.22191,235.3185,0.27,181.0547,6,10,1416095874,0.05429077,0.7607727,-0.4034576,38.99628,26.74391,-11.1442,264.9234,268.0057,15,0.2918819,-0.2753346,-0.7052439,0.09184956,0.2760852,-1.152423,0.3655978,-0.5547501,-0.7815672,0.01945635,0.008459699,0.05658424,172.17.160.76,10.64.29.0,2,walking,0,2014-11-15 17:57:47.210,8,2014-11-15 17:52:35.410,3
2014-11-15 17:57:54.551,11523,384.1,40.10475,-88.22191,235.3185,0.27,181.0547,6,10,1416095874,0.03135681,0.8904419,-0.3280334,37.72623,27.67316,-11.11069,266.5854,269.6678,15,0.168177,-0.3645953,-0.7137426,0.01846316,0.1985054,-1.145135,0.3154035,-0.1616671,-0.6519316,0.007559109,-0.09573305,0.1315596,172.17.160.76,10.64.29.0,2,walking,0,2014-11-15 17:57:47.210,8,2014-11-15 17:52:35.410,3
2014-11-15 17:57:54.584,11524,384.1334,40.10475,-88.22191,235.3185,0.27,181.0547,6,10,1416095874,-0.06488037,0.7041626,-0.4382019,37.0397,28.08616,-10.57291,268.7578,271.8401,15,0.1757721,-0.05619696,-0.6792411,-0.05102056,0.1208087,-1.141097,0.2418127,-0.2850445,-0.672474,-0.05374632,-0.006976073,-0.07067632,172.17.160.76,10.64.29.0,2,walking,0,2014-11-15 17:57:47.210,8,2014-11-15 17:52:35.410,3
2014-11-15 17:57:54.618,11525,384.1667,40.10475,-88.22191,235.3185,0.27,181.0547,6,10,1416095874,0.2281952,0.6999664,-0.3495941,36.04425,28.6024,-10.0015,271.1262,274.2085,15,-0.01114932,-0.05839673,-0.5596668,-0.09941392,0.07927117,-1.136553,0.1471036,0.1595773,-0.6156425,-0.0606296,-0.2638476,-0.05657981,172.17.160.76,10.64.29.0,2,walking,0,2014-11-15 17:57:47.210,8,2014-11-15 17:52:35.410,3
2014-11-15 17:57:54.651,11526,384.2,40.10475,-88.22191,235.3185,0.27,181.0547,6,10,1416095874,-0.1875,0.8374023,-0.3726959,35.08313,28.67123,-9.665375,272.3636,275.4459,15,-0.03125006,-0.4148779,-0.3481109,-0.1330923,0.04350923,-1.137524,-0.04172399,-0.4015665,-0.3599504,0.2193944,-0.1211892,0.1357849,172.17.160.76,10.64.29.0,2,walking,0,2014-11-15 17:57:47.210,8,2014-11-15 17:52:35.410,3
2014-11-15 17:57:54.685,11527,384.2334,40.10475,-88.22191,235.3185,0.27,181.0547,6,10,1416095874,0.08122253,0.651123,-0.2718353,34.36228,28.77448,-9.631683,274.8576,277.9399,15,-0.27907,-0.1298089,-0.4645677,-0.1493374,0.02293642,-1.137264,0.01921473,-0.1582375,-0.3557128,-0.1775877,-0.01478758,-0.03726161,172.17.160.76,10.64.29.0,2,walking,0,2014-11-15 17:57:47.210,8,2014-11-15 17:52:35.410,3
2014-11-15 17:57:54.718,11528,384.2667,40.10475,-88.22191,235.3185,0.27,181.0547,6,10,1416095874,-0.20784,0.8024902,-0.508606,33.05789,28.91215,-8.892242,276.8236,279.9059,15,-0.4310654,-0.142037,-0.2634428,-0.1910158,-0.02310039,-1.149755,-0.3492073,-0.2629403,-0.1723098,0.1206771,-0.1462911,0.0499291,172.17.160.76,10.64.29.0,2,walking,0,2014-11-15 17:57:47.210,8,2014-11-15 17:52:35.410,3
2014-11-15 17:57:54.751,11529,384.3,40.10475,-88.22191,235.3185,0.27,181.0547,6,10,1416095874,0.1479645,0.781662,-0.2203522,32.23407,29.60047,-8.354401,277.8867,280.969,15,-0.5164599,-0.1938861,-0.2400435,-0.2104621,-0.04337841,-1.16047,-0.3829135,-0.05634759,-0.2549529,-0.1905414,-0.1145005,-0.1100726,172.17.160.76,10.64.29.0,2,walking,0,2014-11-15 17:57:47.210,8,2014-11-15 17:52:35.410,3
2014-11-15 17:57:54.784,11530,384.3333,40.10475,-88.22191,235.3185,0.27,181.0547,6,10,1416095874,-0.276413,0.9014435,-0.5214233,31.99379,29.56606,-8.186371,278.128,281.2103,15,-0.4738589,0.08299209,-0.1559494,-0.2292835,-0.06359363,-1.17326,-0.4622132,-0.09147829,-0.1274632,0.172568,-0.1403558,0.1660128,172.17.160.76,10.64.29.0,2,walking,0,2014-11-15 17:57:47.210,8,2014-11-15 17:52:35.410,3
2014-11-15 17:57:54.818,11531,384.3667,40.10475,-88.22191,235.3185,0.27,181.0547,6,10,1416095874,0.1878815,0.8574982,-0.2477417,32.09677,30.01347,-8.354401,277.9286,281.011,15,-0.5135919,0.1034255,-0.4083257,-0.2526255,-0.07931871,-1.188825,-0.3748823,0.2924766,-0.3550485,-0.2123778,-0.02627456,-0.1232946,172.17.160.76,10.64.29.0,2,walking,0,2014-11-15 17:57:47.210,8,2014-11-15 17:52:35.410,3
2014-11-15 17:57:54.851,11532,384.4,40.10475,-88.22191,235.3185,0.27,181.0547,6,10,1416095874,-0.1780853,0.9679718,-0.4645996,31.4789,29.87582,-8.01828,278.0218,281.1041,15,-0.6999459,-0.02102193,-0.154589,-0.28811,-0.1123821,-1.209578,-0.6594936,-0.1167875,-0.1141202,0.02873911,-0.004512965,-0.01847464,172.17.160.76,10.64.29.0,2,walking,0,2014-11-15 17:57:47.210,8,2014-11-15 17:52:35.410,3
2014-11-15 17:57:54.884,11533,384.4333,40.10475,-88.22191,235.3185,0.27,181.0547,6,10,1416095874,0.08016968,0.9001617,-0.342926,31.58188,30.32323,-7.917389,278.0182,281.1005,15,-0.5283379,0.03485119,-0.4850583,-0.3028193,-0.1249599,-1.221256,-0.5532409,0.1283648,-0.2883717,-0.2933153,0.06838911,-0.1448081,172.17.160.76,10.64.29.0,2,walking,0,2014-11-15 17:57:47.210,8,2014-11-15 17:52:35.410,3
2014-11-15 17:57:54.918,11534,384.4667,40.10475,-88.22191,235.3185,0.27,181.0547,6,10,1416095874,0.04405212,0.9620056,-0.3506927,30.6894,30.94272,-7.581329,278.5755,281.6578,15,-0.3741502,-0.1537459,-0.4038332,-0.3707941,-0.1905828,-1.234747,-0.3248386,-0.1662421,-0.4521237,0.2798436,0.06170318,-0.04664783,172.17.160.76,10.64.29.0,2,walking,0,2014-11-15 17:57:47.210,8,2014-11-15 17:52:35.410,3
2014-11-15 17:57:54.951,11535,384.5,40.10475,-88.22191,235.3185,0.27,181.0547,6,10,1416095874,-0.07693481,0.9299774,-0.2319946,30.00288,30.87389,-7.379608,278.9426,282.0249,15,-0.3403669,0.01101217,-0.2523617,-0.3967342,-0.216161,-1.239318,-0.312297,0.03665215,-0.3173556,0.1138532,0.01644321,-0.03282556,172.17.160.76,10.64.29.0,2,walking,0,2014-11-15 17:57:47.210,8,2014-11-15 17:52:35.410,3
2014-11-15 17:57:54.984,11536,384.5334,40.10475,-88.22191,235.3185,0.27,181.0547,6,10,1416095874,-0.006973267,1.007614,-0.2860107,29.31636,31.21805,-7.312469,279.1305,282.2128,15,-0.2505475,-0.2814077,-0.4166446,-0.4378226,-0.2543179,-1.247749,-0.2633257,-0.1250241,-0.3364357,0.002932805,-0.01829512,0.07525178,172.17.160.76,10.64.29.0,2,walking,0,2014-11-15 17:57:47.210,8,2014-11-15 17:52:35.410,3
2014-11-15 17:57:55.018,11537,384.5667,40.10475,-88.22191,235.3185,0.27,181.0547,6,10,1416095874,-0.01867676,0.8917389,-0.2083893,28.45822,31.18363,-6.673859,280.0458,283.1281,15,-0.2613951,0.1342585,-0.2488239,-0.4781815,-0.2975986,-1.250432,-0.1980837,-0.02551597,-0.3817998,0.08536687,0.05849328,0.01505886,172.17.160.76,10.64.29.0,2,walking,0,2014-11-15 17:57:47.210,8,2014-11-15 17:52:35.410,3
2014-11-15 17:57:55.051,11538,384.6,40.10475,-88.22191,235.3185,0.27,181.0547,6,10,1416095874,-0.05589294,0.9026794,-0.3083649,28.38956,31.45896,-7.009979,279.9561,283.0385,15,-0.2785169,-0.1902738,-0.3099118,-0.5176114,-0.3274031,-1.254583,-0.199342,0.1836247,-0.2649924,0.08132643,-0.05868098,0.08606179,172.17.160.76,10.64.29.0,2,walking,0,2014-11-15 17:57:47.210,8,2014-11-15 17:52:35.410,3
2014-11-15 17:57:55.084,11539,384.6334,40.10475,-88.22191,235.3185,0.27,181.0547,6,10,1416095874,0.007766724,0.8094788,-0.1390381,27.7717,31.66545,-6.472198,280.9511,284.0334,15,-0.3289015,0.04679121,-0.1566828,-0.5507694,-0.3605315,-1.257662,-0.2188184,-0.1467392,-0.2539214,0.05277547,-0.04869338,-0.02012724,172.17.160.76,10.64.29.0,2,walking,0,2014-11-15 17:57:47.210,8,2014-11-15 17:52:35.410,3
2014-11-15 17:57:55.118,11540,384.6667,40.10475,-88.22191,235.2341,0.36,225,6,10,1416095875,-0.1549072,0.9172516,-0.2602539,27.18815,32.11288,-6.169708,281.466,284.5483,15,-0.3004397,0.04438797,-0.05065386,-0.5774456,-0.3813043,-1.265547,-0.2565482,0.2397061,-0.01715774,0.02809689,-0.07228699,0.106416,172.17.160.76,10.64.29.0,2,walking,0,2014-11-15 17:57:47.210,8,2014-11-15 17:52:35.410,3
2014-11-15 17:57:55.151,11541,384.7,40.10475,-88.22191,235.2341,0.36,225,6,10,1416095875,-0.0284729,0.8440552,-0.2167511,26.84489,32.04404,-5.631927,282.1686,285.2509,15,-0.3623841,0.08196145,-0.003518835,-0.5988609,-0.399315,-1.274387,-0.3162276,0.02889298,-0.07748752,0.06448801,-0.1168985,0.01741534,172.17.160.76,10.64.29.0,2,walking,0,2014-11-15 17:57:47.210,8,2014-11-15 17:52:35.410,3
2014-11-15 17:57:55.184,11542,384.7334,40.10475,-88.22191,235.2341,0.36,225,6,10,1416095875,-0.170929,0.9260254,-0.29216,26.77624,32.45704,-5.161346,282.3251,285.4074,15,-0.3047791,0.4980969,0.08974427,-0.6048945,-0.4008404,-1.279858,-0.2567376,0.372187,0.0790738,0.1018715,-0.09698274,0.1437979,172.17.160.76,10.64.29.0,2,walking,0,2014-11-15 17:57:47.210,8,2014-11-15 17:52:35.410,3
2014-11-15 17:57:55.218,11543,384.7667,40.10475,-88.22191,235.2341,0.36,225,6,10,1416095875,-0.04658508,0.9784393,-0.2689362,26.9822,32.38821,-5.161346,281.8891,284.9714,15,-0.3795785,-0.1093142,-0.006584666,-0.6096475,-0.3870691,-1.289673,-0.275841,0.1505438,-0.005879038,-0.04249159,-0.02489222,-0.007692036,172.17.160.76,10.64.29.0,2,walking,0,2014-11-15 17:57:47.210,8,2014-11-15 17:52:35.410,3
2014-11-15 17:57:55.251,11544,384.8,40.10475,-88.22191,235.2341,0.36,225,6,10,1416095875,-0.09466553,0.8592224,-0.1912079,27.1195,32.45704,-5.094086,281.8894,284.9717,15,-0.384793,0.2406518,0.04410594,-0.6199302,-0.397891,-1.298761,-0.3240371,0.05424612,0.04368389,0.05995255,0.05087301,0.05495294,172.17.160.76,10.64.29.0,2,walking,0,2014-11-15 17:57:47.210,8,2014-11-15 17:52:35.410,3
2014-11-15 17:57:55.284,11545,384.8333,40.10475,-88.22191,235.2341,0.36,225,6,10,1416095875,-0.1283569,1.194,0.2545319,27.22248,31.80313,-5.060516,281.0929,284.1752,15,-0.330836,-0.2310266,0.06052673,-0.6221997,-0.3869061,-1.312906,-0.3551244,0.2228951,0.1434061,0.00107966,-0.04838158,-0.01451305,172.17.160.76,10.64.29.0,2,walking,0,2014-11-15 17:57:47.210,8,2014-11-15 17:52:35.410,3
2014-11-15 17:57:55.318,11546,384.8667,40.10475,-88.22191,235.2341,0.36,225,6,10,1416095875,0.005722046,1.186935,0.01493835,26.81057,31.52781,-4.320953,280.5319,283.6142,15,-0.3391847,-0.04729614,0.04772624,-0.624675,-0.3897466,-1.32058,-0.5631849,0.05406662,0.1507294,-0.05922328,-0.4234487,-0.7440396,172.17.160.76,10.64.29.0,2,walking,0,2014-11-15 17:57:47.210,8,2014-11-15 17:52:35.410,3
2014-11-15 17:57:55.351,11547,384.9,40.10475,-88.22191,235.2341,0.36,225,6,10,1416095875,-0.184433,1.118301,-0.5034027,26.67327,31.59664,-4.119293,280.894,283.9763,15,-0.3384598,0.02275511,0.1786547,-0.6265966,-0.3867034,-1.329268,-0.2387521,0.4298974,0.1292025,0.1498072,-0.3494067,0.09617388,172.17.160.76,10.64.29.0,2,walking,0,2014-11-15 17:57:47.210,8,2014-11-15 17:52:35.410,3
2014-11-15 17:57:55.384,11548,384.9333,40.10475,-88.22191,235.2341,0.36,225,6,10,1416095875,-0.1108398,0.9172821,-0.1354218,26.57029,31.76871,-3.480682,280.9049,283.9872,15,-0.1832439,0.0860265,-0.01690601,-0.6211455,-0.3761558,-1.337625,-0.3282044,0.1252228,0.01966176,-0.09955217,0.1453628,-0.2884939,172.17.160.76,10.64.29.0,2,walking,0,2014-11-15 17:57:47.210,8,2014-11-15 17:52:35.410,3
2014-11-15 17:57:55.418,11549,384.9667,40.10475,-88.22191,235.2341,0.36,225,6,10,1416095875,-0.1223145,0.9981384,-0.3165741,26.81057,31.66545,-3.715973,280.1609,283.2432,15,-0.519208,0.1664247,0.05589469,-0.6288276,-0.3732961,-1.346024,-0.3422876,0.2450233,0.1243704,-0.04391533,-0.3120183,-0.3067933,172.17.160.76,10.64.29.0,2,walking,0,2014-11-15 17:57:47.210,8,2014-11-15 17:52:35.410,3
2014-11-15 17:57:55.451,11550,385,40.10475,-88.22191,235.2341,0.36,225,6,10,1416095875,-0.1769257,0.9528046,-0.1721497,26.8449,31.69986,-3.749603,278.8333,281.9156,15,-0.2437754,-0.2711689,-0.185213,-0.6395555,-0.3808786,-1.352972,-0.2170903,-0.03939299,-0.1036918,-0.1418184,0.3300875,0.1834226,172.17.160.76,10.64.29.0,2,walking,0,2014-11-15 17:57:47.210,8,2014-11-15 17:52:35.410,3
2014-11-15 17:57:55.484,11551,385.0334,40.10475,-88.22191,235.2341,0.36,225,6,10,1416095875,0.09924316,0.9256744,-0.1199951,26.60461,31.45895,-3.850433,278.5037,281.586,15,-0.3502587,0.2885556,-0.08314895,-0.6714276,-0.4151382,-1.356789,-0.2510321,0.04536011,-0.1392089,0.03838355,0.0482029,-0.0008522494,172.17.160.76,10.64.29.0,2,walking,0,2014-11-15 17:57:47.210,8,2014-11-15 17:52:35.410,3
2014-11-15 17:57:55.518,11552,385.0667,40.10475,-88.22191,235.2341,0.36,225,6,10,1416095875,-0.1691589,0.9580841,-0.1314697,26.77624,31.90636,-3.682343,277.7728,280.8551,15,-0.3019884,-0.2226839,0.04135596,-0.7001296,-0.4340959,-1.367255,-0.2954108,0.06195958,0.08714021,0.02077822,-0.1087208,-0.02853855,172.17.160.76,10.64.29.0,2,walking,0,2014-11-15 17:57:47.210,8,2014-11-15 17:52:35.410,3
2014-11-15 17:57:55.551,11553,385.1,40.10475,-88.22191,235.2341,0.36,225,6,10,1416095875,-0.04971313,0.9714355,-0.1105499,26.81057,31.80312,-3.514252,277.5799,280.6622,15,-0.3250111,-0.3270149,-0.1278829,-0.7187418,-0.4580483,-1.374834,-0.3206907,-0.2507204,-0.09380224,-0.09099272,-0.1280775,0.002566046,172.17.160.76,10.64.29.0,2,walking,0,2014-11-15 17:57:47.210,8,2014-11-15 17:52:35.410,3
2014-11-15 17:57:55.584,11554,385.1334,40.10475,-88.22191,235.2341,0.36,225,6,10,1416095875,0.0539856,0.8236389,-0.1159973,26.9822,32.25053,-3.749542,277.1112,280.1935,15,-0.3618671,0.484152,-0.07252214,-0.7509547,-0.4905301,-1.37971,-0.2369772,0.3631735,-0.123789,0.03975949,-0.01036298,0.05698008,172.17.160.76,10.64.29.0,2,walking,0,2014-11-15 17:57:47.210,8,2014-11-15 17:52:35.410,3
2014-11-15 17:57:55.618,11555,385.1667,40.10475,-88.22191,235.2341,0.36,225,6,10,1416095875,-0.1447906,0.9371948,-0.133728,26.53596,32.28494,-4.320953,273.792,276.8743,15,-0.1974478,-0.4113359,-0.02902526,-0.7746785,-0.5007048,-1.390037,-0.2047783,-0.1265669,0.03273366,0.06228327,-0.005985318,0.03397439,172.17.160.76,10.64.29.0,2,walking,0,2014-11-15 17:57:47.210,8,2014-11-15 17:52:35.410,3
2014-11-15 17:57:55.651,11556,385.2,40.10475,-88.22191,235.2341,0.36,225,6,10,1416095875,-0.0007781982,0.8128967,-0.2605743,26.50163,32.31935,-4.623505,272.583,275.6653,15,-0.2812706,0.4904951,0.06944805,-0.7865873,-0.5209625,-1.393779,-0.1535197,-0.03525707,0.02665357,-0.05714583,-0.04717847,0.01900571,172.17.160.76,10.64.29.0,2,walking,0,2014-11-15 17:57:47.210,8,2014-11-15 17:52:35.410,3
2014-11-15 17:57:55.684,11557,385.2334,40.10475,-88.22191,235.2341,0.36,225,6,10,1416095875,-0.2355347,1.203064,0.005325317,25.98674,32.69793,-5.598297,270.3724,273.4547,15,-0.05786383,-0.1770182,0.05342008,-0.7881958,-0.5091807,-1.399803,-0.2708454,0.4961816,0.1816833,0.0821688,-0.1725196,-0.1119993,172.17.160.76,10.64.29.0,2,walking,0,2014-11-15 17:57:47.210,8,2014-11-15 17:52:35.410,3
2014-11-15 17:57:55.718,11558,385.2667,40.10475,-88.22191,235.2341,0.36,225,6,10,1416095875,0.1364594,0.838089,-0.0871582,26.43298,32.3882,-5.968048,269.1148,272.1971,15,-0.3035349,0.4923279,0.02920476,-0.7775091,-0.5006641,-1.401736,0.05233656,-0.1101504,-0.02864747,-0.1268317,0.01498906,-0.01921954,172.17.160.76,10.64.29.0,2,walking,0,2014-11-15 17:57:47.210,8,2014-11-15 17:52:35.410,3
2014-11-15 17:57:55.751,11559,385.3,40.10475,-88.22191,235.2341,0.36,225,6,10,1416095875,-0.1350708,1.19046,-0.1425629,26.36433,32.25053,-6.035248,268.9373,272.0196,15,-0.1634648,0.1766331,0.163949,-0.7849105,-0.4956886,-1.407239,-0.2344956,0.5161282,0.1519305,0.2803285,-0.1231899,0.07841188,172.17.160.76,10.64.29.0,2,walking,0,2014-11-15 17:57:47.210,8,2014-11-15 17:52:35.410,3
2014-11-15 17:57:55.784,11560,385.3333,40.10475,-88.22191,235.2341,0.36,225,6,10,1416095875,-0.1021423,1.055771,0.1237183,26.9822,31.08038,-6.102509,268.2177,271.3,15,0.2145336,0.04503352,-0.07380845,-0.7627459,-0.4764866,-1.412029,-0.04170725,-0.1127251,0.04705612,-0.06551623,0.09074789,0.0319245,172.17.160.76,10.64.29.0,2,walking,0,2014-11-15 17:57:47.210,8,2014-11-15 17:52:35.410,3
2014-11-15 17:57:55.818,11561,385.3667,40.10475,-88.22191,235.2341,0.36,225,6,10,1416095875,0.1539612,1.06279,0.1746826,27.18816,30.59855,-5.833588,268.3564,271.4387,15,-0.1453585,0.02655758,0.1312464,-0.7519498,-0.4612609,-1.406246,0.08116369,0.1963264,0.03442412,-0.03388875,0.08009721,0.1962803,172.17.160.76,10.64.29.0,2,walking,0,2014-11-15 17:57:47.210,8,2014-11-15 17:52:35.410,3
2014-11-15 17:57:55.851,11562,385.4,40.10475,-88.22191,235.2341,0.36,225,6,10,1416095875,-0.167099,0.979248,-0.2384796,27.42844,30.70181,-6.203339,267.4881,270.5704,15,0.3569459,-0.3276114,-0.02322995,-0.7385443,-0.4462208,-1.406927,0.1651483,0.04250246,0.07257438,0.2243643,0.07618643,0.3218456,172.17.160.76,10.64.29.0,2,walking,0,2014-11-15 17:57:47.210,8,2014-11-15 17:52:35.410,3
2014-11-15 17:57:55.884,11563,385.4333,40.10475,-88.22191,235.2341,0.36,225,6,10,1416095875,0.1824341,0.8644104,0.03401184,28.08063,31.14922,-6.169647,267.7942,270.8765,15,-0.1550298,0.1374724,0.1849408,-0.70809,-0.4203373,-1.399127,-0.1057457,0.1259596,0.1324096,0.09668681,-0.1899061,-0.1413909,172.17.160.76,10.64.29.0,2,walking,0,2014-11-15 17:57:47.210,8,2014-11-15 17:52:35.410,3
2014-11-15 17:57:55.918,11564,385.4667,40.10475,-88.22191,235.2341,0.36,225,6,10,1416095875,0.0003509521,0.844162,-0.3386688,28.11496,31.3213,-6.94278,265.5517,268.634,15,-0.05851178,-0.3659615,0.2201417,-0.6721191,-0.3808056,-1.399202,0.2905363,-0.04703549,0.1841502,0.1006495,-0.004020987,0.188475,172.17.160.76,10.64.29.0,2,walking,0,2014-11-15 17:57:47.210,8,2014-11-15 17:52:35.410,3
2014-11-15 17:57:55.951,11565,385.5,40.10475,-88.22191,235.2341,0.36,225,6,10,1416095875,-0.02110291,0.8393402,-0.2204437,28.28658,31.21805,-7.043671,265.0226,268.1049,15,0.1113079,-0.1038793,0.1816111,-0.6244456,-0.3428157,-1.398259,0.1361427,-0.1400443,0.0993199,0.06756672,-0.05558683,0.001078994,172.17.160.76,10.64.29.0,2,walking,0,2014-11-15 17:57:47.210,8,2014-11-15 17:52:35.410,3
2014-11-15 17:57:55.983,11566,385.5334,40.10475,-88.22191,235.2341,0.36,225,6,10,1416095875,-0.02459717,1.077896,-0.11203,27.70304,30.70181,-7.2117,265.5324,268.6147,15,0.03775191,0.001546764,0.2079172,-0.586266,-0.3066966,-1.395501,0.01219216,0.02787616,0.2375994,0.03155018,-0.1453348,-0.05418253,172.17.160.76,10.64.29.0,2,walking,0,2014-11-15 17:57:47.210,8,2014-11-15 17:52:35.410,3
2014-11-15 17:57:56.018,11567,385.5667,40.10475,-88.22191,235.2341,0.36,225,6,10,1416095875,-0.01054382,0.938446,-0.2729034,27.97765,30.21997,-7.144562,264.9318,268.0141,15,0.1605098,-0.09579444,0.1294568,-0.5457658,-0.2653176,-1.39492,0.2203233,0.03566543,0.1561883,-0.06940007,0.146652,0.1167701,172.17.160.76,10.64.29.0,2,walking,0,2014-11-15 17:57:47.210,8,2014-11-15 17:52:35.410,3
2014-11-15 17:57:56.051,11568,385.6,40.10475,-88.22191,235.2341,0.36,225,6,10,1416095875,-0.1120758,1.680969,0.08451843,27.909,30.08231,-6.741119,265.0282,268.1105,15,-0.2502541,0.2581455,-0.02317909,-0.4939993,-0.2176566,-1.396458,-0.3790494,-0.1316313,0.1968264,-0.05676645,-0.11329,-0.9658899,172.17.160.76,10.64.29.0,2,walking,0,2014-11-15 17:57:47.210,8,2014-11-15 17:52:35.410,3
2014-11-15 17:57:56.084,11569,385.6334,40.10475,-88.22191,235.2341,0.36,225,6,10,1416095875,-0.06741333,1.002945,-0.6666565,28.52687,30.21997,-6.404938,265.7351,268.8174,15,0.2061944,-0.2226499,-0.2046876,-0.4999642,-0.2244597,-1.396294,0.5493227,-0.4292319,-0.1797359,-0.453803,1.192128,0.4601871,172.17.160.76,10.64.29.0,2,walking,0,2014-11-15 17:57:47.210,8,2014-11-15 17:52:35.410,3
2014-11-15 17:57:56.118,11570,385.6667,40.10475,-88.22192,235.3651,0.47,247.5,6,10,1416095876,-0.01087952,0.7582245,0.2370148,28.38956,30.08231,-6.001556,266.1789,269.2612,15,0.228899,-0.239423,-0.3141936,-0.5273562,-0.250181,-1.396739,0.0707907,-0.1269748,-0.144508,-0.02374417,0.6563909,0.246493,172.17.160.76,10.64.29.0,2,walking,0,2014-11-15 17:57:47.210,8,2014-11-15 17:52:35.410,3
2014-11-15 17:57:56.151,11571,385.7,40.10475,-88.22192,235.3651,0.47,247.5,6,10,1416095876,0.03013611,1.280289,-0.05418396,28.28658,29.84141,-6.371368,265.6955,268.7778,15,-0.3897163,-0.01426655,0.1977583,-0.5492125,-0.2749128,-1.391042,0.131739,-0.134915,-0.2074055,0.03765475,-0.2256632,0.4090889,172.17.160.76,10.64.29.0,2,walking,0,2014-11-15 17:57:47.210,8,2014-11-15 17:52:35.410,3
2014-11-15 17:57:56.184,11572,385.7334,40.10475,-88.22192,235.3651,0.47,247.5,6,10,1416095876,0.01509094,0.5295563,-0.1845703,27.80602,30.18559,-6.438629,265.6704,268.7527,15,-0.2920316,-0.08998396,0.3084494,-0.5291666,-0.2554509,-1.400545,-0.00122284,-0.08501915,0.06084846,0.1113239,0.2535783,0.2710487,172.17.160.76,10.64.29.0,2,walking,0,2014-11-15 17:57:47.210,8,2014-11-15 17:52:35.410,3
2014-11-15 17:57:56.218,11573,385.7667,40.10475,-88.22192,235.3651,0.47,247.5,6,10,1416095876,-0.07081604,1.055389,-0.04338074,27.909,30.42648,-6.60672,264.9897,268.072,15,-0.1948313,-0.1373461,0.2335323,-0.4923145,-0.2202406,-1.407687,-0.3057208,0.04242868,0.3163539,0.05912682,-0.3750024,-0.107878,172.17.160.76,10.64.29.0,2,walking,0,2014-11-15 17:57:47.210,8,2014-11-15 17:52:35.410,3
2014-11-15 17:57:56.251,11574,385.8,40.10475,-88.22192,235.3651,0.47,247.5,6,10,1416095876,0.02682495,0.6456757,-0.5105133,27.909,30.56414,-6.2034,265.5394,268.6217,15,-0.3903651,-0.03819505,0.4067467,-0.449429,-0.1794259,-1.414447,-0.132056,-0.1330597,0.3052261,-0.04302666,0.06758715,0.109833,172.17.160.76,10.64.29.0,2,walking,0,2014-11-15 17:57:47.210,8,2014-11-15 17:52:35.410,3
2014-11-15 17:57:56.284,11575,385.8333,40.10475,-88.22192,235.3651,0.47,247.5,6,10,1416095876,0.0843811,1.314087,0.4620667,28.25226,30.28882,-5.732819,264.8359,267.9182,15,0.03031423,-0.2508213,0.1354968,-0.3837839,-0.1155014,-1.427238,-0.7066957,0.04722209,0.3635242,0.04331257,-0.3440375,-0.3684004,172.17.160.76,10.64.29.0,2,walking,0,2014-11-15 17:57:47.210,8,2014-11-15 17:52:35.410,3
2014-11-15 17:57:56.318,11576,385.8667,40.10475,-88.22192,235.3651,0.47,247.5,6,10,1416095876,-0.03651428,1.38504,0.06761169,28.21794,30.18559,-5.094086,264.555,267.6373,15,-0.324728,-0.1802726,0.1690423,-0.3131578,-0.04145938,-1.438544,-0.3963724,-0.005449925,0.3068905,-0.2967805,0.3188981,-0.3087822,172.17.160.76,10.64.29.0,2,walking,0,2014-11-15 17:57:47.210,8,2014-11-15 17:52:35.410,3
