time,timestamp,recordtime,lat,long,alt,speed,course,verticalAccuracy,horizontalAccuracy,locTimeStamp,accelerationX,accelerationY,accelerationZ,HeadingX,HeadingY,HeadingZ,TrueHeading,MagneticHeading,HeadingAccuracy,RotationX,RotationY,RotationZ,motionYaw,motionRoll,motionPitch,motionRotationRateX,motionRotationRateY,motionRotationRateZ,motionUserAccelerationX,motionUserAccelerationY,motionUserAccelerationZ,en0,pdp_ip0,DeviceOrientation,Activity,Activity Confidence,Activity Start,Steps,Last Step Date,State
2014-11-15 17:58:05.117,11840,394.6667,40.10479,-88.22195,235.1563,0.25,287.9297,6,10,1416095885,0.0158844,1.262299,0.04243469,31.65053,29.29081,-1.800568,254.9012,257.9836,10,0.5207101,0.1406831,-0.4756914,1.431685,1.602395,-1.472402,0.4166932,0.05764611,-0.3848173,0.08734466,0.1202391,-0.04874264,172.17.160.76,10.64.29.0,2,unknown,0,2014-11-15 17:57:57.106,8,2014-11-15 17:52:35.410,3
2014-11-15 17:58:05.152,11841,394.7,40.10479,-88.22195,235.1563,0.25,287.9297,6,10,1416095885,0.1092987,1.193039,0.126236,30.99833,29.46289,-2.170258,256.2568,259.3391,10,0.571113,-0.3657713,-0.7035813,1.211427,1.387355,-1.485593,0.7305524,0.04255677,-0.5346797,-0.06780341,0.277767,0.1774498,172.17.160.76,10.64.29.0,2,unknown,0,2014-11-15 17:57:57.106,8,2014-11-15 17:52:35.410,3
2014-11-15 17:58:05.185,11842,394.7334,40.10479,-88.22195,235.1563,0.25,287.9297,6,10,1416095885,-0.1107635,1.101547,-0.05311584,30.65507,29.60056,-2.304749,257.2931,260.3754,10,0.4365917,-0.2151024,-0.5993204,1.000629,1.173642,-1.493942,0.6369399,-0.2985715,-0.6879175,0.03849564,0.1959908,0.1559338,172.17.160.76,10.64.29.0,2,unknown,0,2014-11-15 17:57:57.106,8,2014-11-15 17:52:35.410,3
2014-11-15 17:58:05.218,11843,394.7667,40.10479,-88.22195,235.1563,0.25,287.9297,6,10,1416095885,0.1435699,1.103989,0.1251526,30.27749,30.39214,-2.472839,261.1363,264.2186,10,0.6054875,-0.2876592,-0.7701721,0.5444813,0.7091716,-1.501755,0.614493,-0.3473846,-0.6806602,-0.1556882,0.1039297,-0.0007615982,172.17.160.76,10.64.29.0,2,unknown,0,2014-11-15 17:57:57.106,8,2014-11-15 17:52:35.410,3
2014-11-15 17:58:05.251,11844,394.8,40.10479,-88.22195,235.1563,0.25,287.9297,6,10,1416095885,-0.005325317,0.7996521,-0.1921234,29.93423,30.87397,-2.67453,262.5511,265.6334,10,0.5790085,-0.1943927,-0.8035492,0.1404366,0.2990402,-1.494978,0.6895629,-0.1590382,-0.7807903,0.1212551,0.1068615,0.1975363,172.17.160.76,10.64.29.0,2,unknown,0,2014-11-15 17:57:57.106,8,2014-11-15 17:52:35.410,3
2014-11-15 17:58:05.285,11845,394.8333,40.10479,-88.22195,235.1563,0.25,287.9297,6,10,1416095885,0.2114563,1.013962,0.2397461,28.76715,31.28697,-2.203949,266.1082,269.1905,10,0.5297797,-0.3913734,-0.4371294,-0.2663936,-0.1113401,-1.471244,0.480825,-0.2100278,-0.5095994,0.1309008,-0.1608661,0.01944183,172.17.160.76,10.64.29.0,2,unknown,0,2014-11-15 17:57:57.106,8,2014-11-15 17:52:35.410,3
2014-11-15 17:58:05.318,11846,394.8667,40.10479,-88.22195,235.1563,0.25,287.9297,6,10,1416095885,-0.1750793,0.8258362,-0.1038208,27.56574,31.18372,-2.909882,267.6269,270.7092,10,0.4757141,-0.4432059,-0.5507784,-0.357988,-0.2110092,-1.4507,0.6342682,-0.2982928,-0.5095775,0.1514971,0.08381724,0.3830803,172.17.160.76,10.64.29.0,2,unknown,0,2014-11-15 17:57:57.106,8,2014-11-15 17:52:35.410,3
2014-11-15 17:58:05.351,11847,394.9,40.10479,-88.22195,235.1563,0.25,287.9297,6,10,1416095885,0.25914,0.5566864,-0.06861877,27.25681,31.3558,-2.809052,268.7324,271.8147,10,-0.0271472,-0.08019257,-0.2094326,-0.4411097,-0.3005176,-1.435154,0.1831081,-0.06864189,-0.3782395,0.05173264,-0.3590245,-0.02467258,172.17.160.76,10.64.29.0,2,unknown,0,2014-11-15 17:57:57.106,8,2014-11-15 17:52:35.410,3
2014-11-15 17:58:05.384,11848,394.9333,40.10479,-88.22195,235.1563,0.25,287.9297,6,10,1416095885,-0.04260254,1.062531,-0.003509521,27.39411,31.76878,-3.279633,269.8875,272.9698,10,0.1849358,-0.1860639,0.1373818,-0.4421,-0.3005219,-1.432492,0.1623398,0.03751551,0.1722448,0.3082054,-0.1591066,0.1265584,172.17.160.76,10.64.29.0,2,unknown,0,2014-11-15 17:57:57.106,8,2014-11-15 17:52:35.410,3
2014-11-15 17:58:05.418,11849,394.9667,40.10479,-88.22195,235.1563,0.25,287.9297,6,10,1416095885,0.07536316,0.5362701,-0.1159363,27.29113,32.07852,-3.178802,269.7672,272.8495,10,-0.1054122,-0.1743263,0.2669702,-0.3926738,-0.2597916,-1.425701,0.1238837,-0.2476297,0.1231088,-0.01530308,-0.2990166,0.09662904,172.17.160.76,10.64.29.0,2,unknown,0,2014-11-15 17:57:57.106,8,2014-11-15 17:52:35.410,3
2014-11-15 17:58:05.451,11850,395,40.10479,-88.22195,235.1563,0.25,287.9297,6,10,1416095885,-0.06309509,0.9741058,-0.2033997,27.63439,31.87203,-3.380463,269.4502,272.5325,10,0.03005297,-0.1256101,0.2539817,-0.3401408,-0.212328,-1.42758,-0.03018665,-0.1237324,0.3398189,0.0433682,-0.3206794,-0.03824289,172.17.160.76,10.64.29.0,2,unknown,0,2014-11-15 17:57:57.106,8,2014-11-15 17:52:35.410,3
2014-11-15 17:58:05.485,11851,395.0334,40.10479,-88.22195,235.1563,0.25,287.9297,6,10,1416095885,0.03707886,0.7915039,-0.115097,27.73737,31.76878,-3.212433,269.2484,272.3307,10,0.04851321,0.03748612,0.1836521,-0.2937157,-0.1685132,-1.427772,0.09586901,-0.05844152,0.2696328,-0.03918917,-0.01568358,-0.06288125,172.17.160.76,10.64.29.0,2,unknown,0,2014-11-15 17:57:57.106,8,2014-11-15 17:52:35.410,3
2014-11-15 17:58:05.518,11852,395.0667,40.10479,-88.22195,235.1563,0.25,287.9297,6,10,1416095885,0.01763916,0.9571381,-0.1139679,28.6985,31.90646,-3.414093,268.8542,271.9365,10,-0.1069464,0.01634329,0.470723,-0.2248456,-0.09550866,-1.425792,0.01270123,0.2035268,0.3413815,0.08030804,-0.2343478,0.04201636,172.17.160.76,10.64.29.0,2,unknown,0,2014-11-15 17:57:57.106,8,2014-11-15 17:52:35.410,3
2014-11-15 17:58:05.551,11853,395.1,40.10479,-88.22195,235.1563,0.25,287.9297,6,10,1416095885,-0.0562439,1.077972,-0.1455536,28.90445,31.83762,-3.481354,268.5336,271.6159,10,-0.06740381,-0.01053706,0.4311586,-0.1296621,0.001616659,-1.427396,-0.03798018,0.04636631,0.4925355,0.01740813,-0.03259771,0.02894131,172.17.160.76,10.64.29.0,2,unknown,0,2014-11-15 17:57:57.106,8,2014-11-15 17:52:35.410,3
2014-11-15 17:58:05.584,11854,395.1334,40.10479,-88.22195,235.1563,0.25,287.9297,6,10,1416095885,0.03504944,0.6919861,-0.2871399,30.14019,31.90646,-4.086395,266.5194,269.6017,10,-0.2160013,0.04273894,0.582726,0.01423177,0.142949,-1.426376,-0.06679972,0.02517593,0.4989005,0.006276189,-0.1217002,-0.04744521,172.17.160.76,10.64.29.0,2,unknown,0,2014-11-15 17:57:57.106,8,2014-11-15 17:52:35.410,3
2014-11-15 17:58:05.618,11855,395.1667,40.10479,-88.22195,235.1563,0.25,287.9297,6,10,1416095885,0.103302,1.28685,0.08470154,31.23862,31.97527,-4.355316,265.1532,268.2355,10,-0.09272461,-0.07984956,0.6792752,0.158428,0.2892559,-1.426901,-0.1432088,0.1260167,0.7629651,0.03253756,-0.2392225,-0.0673771,172.17.160.76,10.64.29.0,2,unknown,0,2014-11-15 17:57:57.106,8,2014-11-15 17:52:35.410,3
2014-11-15 17:58:05.651,11856,395.2,40.10479,-88.22195,235.1563,0.25,287.9297,6,10,1416095885,0.03826904,0.6031342,-0.2276764,31.68485,31.94086,-4.725067,263.8502,266.9325,10,-0.0351966,-0.3326251,0.2743655,0.2599676,0.3853594,-1.420912,0.08916827,-0.3451274,0.2968077,-0.1327288,0.223202,0.003958199,172.17.160.76,10.64.29.0,2,unknown,0,2014-11-15 17:57:57.106,8,2014-11-15 17:52:35.410,3
2014-11-15 17:58:05.684,11857,395.2334,40.10479,-88.22195,235.1563,0.25,287.9297,6,10,1416095885,0.261322,0.8287811,-0.1482544,32.98924,31.59671,-4.859528,261.9293,265.0116,10,-0.4533848,-0.1661397,0.7682743,0.3399202,0.4580854,-1.41843,-0.2846853,-0.1376462,0.5933306,0.01668045,-0.4873618,-0.1120244,172.17.160.76,10.64.29.0,2,unknown,0,2014-11-15 17:57:57.106,8,2014-11-15 17:52:35.410,3
2014-11-15 17:58:05.718,11858,395.2667,40.10479,-88.22195,235.1563,0.25,287.9297,6,10,1416095885,-0.03443909,1.258347,-0.1775208,34.22498,31.39021,-4.993988,260.3447,263.427,10,-0.0737211,-0.007537811,0.4057225,0.5051823,0.6202936,-1.414418,-0.161461,-0.005666214,0.7718931,0.04925701,0.2109937,0.1065563,172.17.160.76,10.64.29.0,2,unknown,0,2014-11-15 17:57:57.106,8,2014-11-15 17:52:35.410,3
2014-11-15 17:58:05.751,11859,395.3,40.10479,-88.22195,235.1563,0.25,287.9297,6,10,1416095885,0.09387207,0.4995728,-0.3066864,34.73987,31.21814,-4.893097,259.3154,262.3977,10,-0.3654986,0.1765095,0.6996918,0.5820347,0.6981285,-1.405812,-0.05040653,0.1582946,0.3986989,-0.09764979,-0.04376344,-0.008616756,172.17.160.76,10.64.29.0,2,unknown,0,2014-11-15 17:57:57.106,8,2014-11-15 17:52:35.410,3
2014-11-15 17:58:05.784,11860,395.3333,40.10479,-88.22195,235.1563,0.25,287.9297,6,10,1416095885,0.1160583,1.257462,0.03488159,35.80397,30.56422,-5.330109,257.5282,260.6105,10,-0.07316715,0.07784526,0.5972368,0.7509013,0.873701,-1.392586,-0.3292789,0.2073841,0.9742633,0.02909532,-0.2132886,-0.07958499,172.17.160.76,10.64.29.0,2,unknown,0,2014-11-15 17:57:57.106,8,2014-11-15 17:52:35.410,3
2014-11-15 17:58:05.818,11861,395.3667,40.10479,-88.22195,235.1563,0.25,287.9297,6,10,1416095885,0.05174255,0.5370178,-0.3214722,36.97105,29.73824,-5.66629,254.6288,257.7111,10,-0.2773847,0.08529785,0.4451873,0.8273009,0.9541771,-1.377908,0.04016406,0.1764565,0.4175619,-0.04033354,0.2760069,0.1457349,172.17.160.76,10.64.29.0,2,unknown,0,2014-11-15 17:57:57.106,8,2014-11-15 17:52:35.410,3
2014-11-15 17:58:05.851,11862,395.4,40.10479,-88.22195,235.1563,0.25,287.9297,6,10,1416095885,0.2129059,1.003525,-0.156662,37.89785,29.63498,-5.767181,253.9076,256.9899,10,-0.2802775,0.07016684,0.6935052,0.9272074,1.058398,-1.364414,-0.4290487,0.1467133,0.8129719,-0.02137569,-0.4023017,-0.2108439,172.17.160.76,10.64.29.0,2,unknown,0,2014-11-15 17:57:57.106,8,2014-11-15 17:52:35.410,3
2014-11-15 17:58:05.884,11863,395.4333,40.10479,-88.22195,235.1563,0.25,287.9297,6,10,1416095885,0.205246,1.10495,0.01351929,38.756,29.4629,-5.66629,252.3856,255.4679,10,-0.01484792,0.221787,0.3844185,0.9892748,1.122003,-1.354049,-0.2144666,0.1373301,0.7091551,0.01914849,0.0269226,-0.06335465,172.17.160.76,10.64.29.0,2,unknown,0,2014-11-15 17:57:57.106,8,2014-11-15 17:52:35.410,3
2014-11-15 17:58:05.918,11864,395.4667,40.10479,-88.22195,235.1563,0.25,287.9297,6,10,1416095885,0.2647705,0.6718597,-0.2802582,39.85443,28.84341,-6.002472,250.1745,253.2568,10,-0.3143867,0.02971715,0.6817437,1.036846,1.179084,-1.334016,-0.1756168,0.1478404,0.55515,-0.1404056,-0.2890997,-0.2577823,172.17.160.76,10.64.29.0,2,unknown,0,2014-11-15 17:57:57.106,8,2014-11-15 17:52:35.410,3
2014-11-15 17:58:05.951,11865,395.5,40.10479,-88.22195,235.1563,0.25,287.9297,6,10,1416095885,0.2688446,1.268845,0.2308655,40.50663,28.46484,-6.304962,249.401,252.4833,10,0.05975042,-0.08957702,0.6669767,1.091012,1.232803,-1.31485,-0.05926431,0.005280945,0.8214569,0.1300742,0.1316969,0.09752709,172.17.160.76,10.64.29.0,2,unknown,0,2014-11-15 17:57:57.106,8,2014-11-15 17:52:35.410,3
2014-11-15 17:58:05.984,11866,395.5334,40.10479,-88.22195,235.1563,0.25,287.9297,6,10,1416095885,0.0499115,0.5612946,-0.3530731,42.01697,27.43236,-6.977203,246.7074,249.7897,10,0.1077709,0.09711377,0.3450895,1.086056,1.22933,-1.296713,0.341948,0.1303,0.3747904,-0.1272298,0.06914079,0.05857836,172.17.160.76,10.64.29.0,2,unknown,0,2014-11-15 17:57:57.106,8,2014-11-15 17:52:35.410,3
2014-11-15 17:58:06.018,11867,395.5667,40.10479,-88.22195,235.1563,0.25,287.9297,6,10,1416095885,0.4889374,1.037491,-0.082901,43.08107,26.64079,-8.153595,244.5574,247.6397,10,-0.02132713,-0.2288571,0.6506246,1.09954,1.243909,-1.283742,-0.185521,-0.1303099,0.586628,-0.1227648,-0.3907533,-0.2438052,172.17.160.76,10.64.29.0,2,unknown,0,2014-11-15 17:57:57.106,8,2014-11-15 17:52:35.410,3
2014-11-15 17:58:06.051,11868,395.6,40.10479,-88.22195,235.1563,0.25,287.9297,6,10,1416095885,0.08432007,0.869751,-0.193512,43.56164,26.09013,-8.691376,243.2578,246.3401,10,0.4874461,0.07524069,0.2862326,1.118268,1.256247,-1.265362,0.266535,-0.1849445,0.5559875,0.1088522,0.2675971,0.1175409,172.17.160.76,10.64.29.0,2,unknown,0,2014-11-15 17:57:57.106,8,2014-11-15 17:52:35.410,3
2014-11-15 17:58:06.084,11869,395.6334,40.10479,-88.22195,235.1563,0.25,287.9297,6,10,1416095885,0.3089294,0.8636322,-0.2898865,44.66007,24.85116,-10.23758,240.4346,243.5169,10,-0.09863603,-0.4185365,0.4323115,1.076286,1.218493,-1.247172,0.2696533,-0.0224001,0.2702315,-0.2649188,-0.2396389,-0.1450298,172.17.160.76,10.64.29.0,2,unknown,0,2014-11-15 17:57:57.106,8,2014-11-15 17:52:35.410,3
2014-11-15 17:58:06.117,11870,395.6667,40.10479,-88.22195,235.1013,0.34,320.9766,6,10,1416095886,0.5137329,1.216537,0.2295074,45.6212,23.74983,-10.97702,239.5544,242.6367,10,0.4878211,-0.3030938,0.4190471,1.086512,1.219264,-1.235083,-0.001114891,-0.4699564,0.5066604,-0.0003664625,-0.0805434,-0.1764471,172.17.160.76,10.64.29.0,2,unknown,0,2014-11-15 17:57:57.106,8,2014-11-15 17:52:35.410,3
2014-11-15 17:58:06.151,11871,395.7,40.10479,-88.22195,235.1013,0.34,320.9766,6,10,1416095886,0.01643372,0.8632812,-0.3171387,45.82715,23.268,-11.64938,238.3027,241.385,10,0.5516384,-0.08931071,0.1683626,1.062925,1.188403,-1.21817,0.6608059,-0.1660874,0.2627025,0.1933132,0.2780686,0.3583771,172.17.160.76,10.64.29.0,2,unknown,0,2014-11-15 17:57:57.106,8,2014-11-15 17:52:35.410,3
2014-11-15 17:58:06.184,11872,395.7334,40.10479,-88.22195,235.1013,0.34,320.9766,6,10,1416095886,0.5470276,1.116272,0.104187,46.71962,22.85501,-13.39731,236.5416,239.6239,10,-0.01258716,-0.3821631,0.1880399,1.031232,1.153363,-1.205263,0.05527423,-0.3116175,0.2302361,-0.2794518,-0.1614572,-0.3036176,172.17.160.76,10.64.29.0,2,unknown,0,2014-11-15 17:57:57.106,8,2014-11-15 17:52:35.410,3
2014-11-15 17:58:06.218,11873,395.7667,40.10479,-88.22195,235.1013,0.34,320.9766,6,10,1416095886,0.229126,1.179886,0.1845093,47.6121,22.44201,-15.34677,234.9237,238.006,10,0.5257131,-0.2135419,-0.1039339,1.007582,1.118607,-1.194479,0.5538419,-0.2018755,0.01877349,0.289998,0.2201984,0.3214921,172.17.160.76,10.64.29.0,2,unknown,0,2014-11-15 17:57:57.106,8,2014-11-15 17:52:35.410,3
2014-11-15 17:58:06.251,11874,395.8,40.10479,-88.22195,235.1013,0.34,320.9766,6,10,1416095886,0.4396973,0.7946625,-0.4057159,48.09267,21.89134,-16.28799,234.1976,237.2799,10,-0.1850418,-0.6701376,0.03325436,0.9732506,1.07981,-1.191382,0.1381998,-0.408508,-0.07310726,-0.382745,-0.03987419,-0.5384122,172.17.160.76,10.64.29.0,2,unknown,0,2014-11-15 17:57:57.106,8,2014-11-15 17:52:35.410,3
2014-11-15 17:58:06.284,11875,395.8333,40.10479,-88.22195,235.1013,0.34,320.9766,6,10,1416095886,0.4425354,1.235352,0.05886841,48.33295,21.71926,-17.80051,231.8675,234.9498,10,0.2111125,-0.4388,-0.1230487,0.9793276,1.069278,-1.19254,0.04542954,-0.4296981,-0.0707486,0.3305199,0.05970378,0.1918875,172.17.160.76,10.64.29.0,2,unknown,0,2014-11-15 17:57:57.106,8,2014-11-15 17:52:35.410,3
2014-11-15 17:58:06.318,11876,395.8667,40.10479,-88.22195,235.1013,0.34,320.9766,6,10,1416095886,0.05529785,0.730896,-0.9169617,48.26429,21.30626,-20.08615,229.5775,232.6598,10,-0.02984099,-0.533371,-0.1385667,0.9488444,1.027239,-1.190945,0.4636104,-0.524303,-0.1906373,0.06162388,0.4209355,0.2701168,172.17.160.76,10.64.29.0,2,unknown,0,2014-11-15 17:57:57.106,8,2014-11-15 17:52:35.410,3
2014-11-15 17:58:06.351,11877,395.9,40.10479,-88.22195,235.1013,0.34,320.9766,6,10,1416095886,0.6299896,1.208633,0.08517456,48.12699,21.44392,-21.09451,229.0947,232.177,10,0.2235577,-0.6923766,-0.072418,0.9407504,0.9971719,-1.192501,-0.09498789,-0.7407158,0.1032837,-0.0702455,-0.1626331,-0.3905413,172.17.160.76,10.64.29.0,2,unknown,0,2014-11-15 17:57:57.106,8,2014-11-15 17:52:35.410,3
2014-11-15 17:58:06.384,11878,395.9333,40.10479,-88.22195,235.1013,0.34,320.9766,6,10,1416095886,0.1818848,1.192413,-0.3688965,47.88671,21.06535,-23.21207,227.4112,230.4935,10,0.05147304,-0.5394675,-0.2376211,0.9235409,0.9611657,-1.189708,0.3591289,-0.5881118,-0.2043815,0.2521516,0.3636709,0.3100464,172.17.160.76,10.64.29.0,2,unknown,0,2014-11-15 17:57:57.106,8,2014-11-15 17:52:35.410,3
2014-11-15 17:58:06.418,11879,395.9667,40.10479,-88.22195,235.1013,0.34,320.9766,6,10,1416095886,0.4483643,0.894104,-0.1445465,47.68075,21.54717,-25.56503,225.992,229.0743,10,-0.4428158,-0.7993584,-0.06942461,0.904951,0.9338943,-1.190709,0.1172769,-0.4723113,-0.2219728,-0.1163787,0.263781,-0.1482592,172.17.160.76,10.64.29.0,2,unknown,0,2014-11-15 17:57:57.106,8,2014-11-15 17:52:35.410,3
2014-11-15 17:58:06.451,11880,396,40.10479,-88.22195,235.1013,0.34,320.9766,6,10,1416095886,0.2478027,1.128281,-0.2807159,47.33749,21.89134,-26.43893,225.4008,228.4831,10,-0.01237092,-0.4652132,-0.2582206,0.9224596,0.91493,-1.201566,-0.05463443,-0.5503649,-0.152754,0.3149332,0.1883054,0.2641445,172.17.160.76,10.64.29.0,2,unknown,0,2014-11-15 17:57:57.106,8,2014-11-15 17:52:35.410,3
2014-11-15 17:58:06.484,11881,396.0334,40.10479,-88.22195,235.1013,0.34,320.9766,6,10,1416095886,0.1493225,0.8131561,-0.4149323,46.99423,22.51083,-27.91794,223.6629,226.7453,15,-0.3177332,-0.2871671,-0.05658099,0.912907,0.8996302,-1.204453,0.05240787,-0.1320572,-0.1912884,0.1307314,0.3363303,0.2524603,172.17.160.76,10.64.29.0,2,unknown,0,2014-11-15 17:57:57.106,8,2014-11-15 17:52:35.410,3
2014-11-15 17:58:06.518,11882,396.0667,40.10479,-88.22195,235.1013,0.34,320.9766,6,10,1416095886,0.4729156,1.03743,-0.01647949,46.44501,22.855,-28.45578,223.2467,226.329,15,-0.1541014,-0.4333442,-0.2681369,0.9284199,0.8982751,-1.214189,-0.1632604,-0.5569827,-0.1916571,0.05723995,-0.01348737,0.161428,172.17.160.76,10.64.29.0,2,unknown,0,2014-11-15 17:57:57.106,8,2014-11-15 17:52:35.410,3
2014-11-15 17:58:06.551,11883,396.1,40.10479,-88.22195,235.1013,0.34,320.9766,6,10,1416095886,0.007171631,0.7693176,-0.4645691,46.44501,23.0615,-29.26248,222.5451,225.6274,15,-0.2840645,-0.1428855,-0.2257844,0.9196434,0.8797494,-1.222007,-0.09887038,-0.2195394,-0.2474414,-0.00667023,0.1051196,-0.04412848,172.17.160.76,10.64.29.0,2,unknown,0,2014-11-15 17:57:57.106,8,2014-11-15 17:52:35.410,3
2014-11-15 17:58:06.584,11884,396.1334,40.10479,-88.22195,235.1013,0.34,320.9766,6,10,1416095886,0.3848419,0.928009,-0.08222961,45.93013,23.37125,-30.3718,221.3326,224.4149,15,-0.3343061,-0.4906427,-0.2688254,0.9268805,0.8824434,-1.231584,-0.3133349,-0.2572949,-0.1948246,-0.07673979,-0.1963433,-0.1365189,172.17.160.76,10.64.29.0,2,unknown,0,2014-11-15 17:57:57.106,8,2014-11-15 17:52:35.410,3
2014-11-15 17:58:06.618,11885,396.1667,40.10479,-88.22195,235.1013,0.34,320.9766,6,10,1416095886,0.1067047,0.8069458,-0.477005,45.65552,23.09592,-31.44736,219.8223,222.9046,15,-0.1262168,-0.2496,-0.2768271,0.9254611,0.8688436,-1.241593,-0.07221799,-0.4090561,-0.296306,0.1135544,0.09798085,0.182384,172.17.160.76,10.64.29.0,2,unknown,0,2014-11-15 17:57:57.106,8,2014-11-15 17:52:35.410,3
2014-11-15 17:58:06.651,11886,396.2,40.10479,-88.22195,235.1013,0.34,320.9766,6,10,1416095886,0.3448792,0.902359,-0.1561127,45.62119,22.99267,-31.81705,219.7637,222.846,15,-0.3218018,-0.7848219,-0.2481302,0.9130861,0.8486994,-1.251895,-0.2162585,-0.2127949,-0.2055688,-0.1316978,-0.1779131,-0.1447178,172.17.160.76,10.64.29.0,2,unknown,0,2014-11-15 17:57:57.106,8,2014-11-15 17:52:35.410,3
2014-11-15 17:58:06.685,11887,396.2334,40.10479,-88.22195,235.1013,0.34,320.9766,6,10,1416095886,0.3803558,1.138855,-0.04634094,44.6944,23.37124,-32.59012,219.4483,222.5306,15,-0.1074287,-0.6126996,-0.2363502,0.9168311,0.834218,-1.261349,-0.1707768,-0.7069597,-0.2125874,0.131375,0.04615534,0.1544316,172.17.160.76,10.64.29.0,2,unknown,0,2014-11-15 17:57:57.106,8,2014-11-15 17:52:35.410,3
2014-11-15 17:58:06.718,11888,396.2667,40.10479,-88.22195,235.1013,0.34,320.9766,6,10,1416095886,0.199234,1.006592,-0.2971191,44.14518,24.05958,-33.39682,217.1166,220.1989,15,-0.2001938,-0.04411367,-0.0854627,0.9096541,0.8177116,-1.264869,-0.005362311,-0.3167723,-0.1718773,0.1606217,0.185287,0.1596323,172.17.160.76,10.64.29.0,2,unknown,0,2014-11-15 17:57:57.106,8,2014-11-15 17:52:35.410,3
2014-11-15 17:58:06.751,11889,396.3,40.10479,-88.22195,235.1013,0.34,320.9766,6,10,1416095886,0.3635254,1.208542,-0.1003876,43.63029,24.50699,-33.29599,216.8928,219.9751,15,-0.1608925,-0.353574,-0.116961,0.9193946,0.8200697,-1.271988,-0.14534,-0.4053225,-0.08690105,0.1692567,0.1115421,-0.01835918,172.17.160.76,10.64.29.0,2,unknown,0,2014-11-15 17:57:57.106,8,2014-11-15 17:52:35.410,3
2014-11-15 17:58:06.784,11890,396.3333,40.10479,-88.22195,235.1013,0.34,320.9766,6,10,1416095886,0.1908569,1.04361,-0.2881622,43.9049,24.36932,-33.56491,216.8096,219.8919,15,-0.06045003,0.08760308,-0.08210792,0.9182285,0.8145698,-1.274366,-0.003259069,-0.04736094,-0.09403998,0.1510373,0.2521565,0.1000514,172.17.160.76,10.64.29.0,2,unknown,0,2014-11-15 17:57:57.106,8,2014-11-15 17:52:35.410,3
2014-11-15 17:58:06.818,11891,396.3667,40.10479,-88.22195,235.1013,0.34,320.9766,6,10,1416095886,0.4006348,1.110016,-0.1422272,43.45866,24.40373,-33.80014,216.6163,219.6986,15,-0.03318458,-0.01561092,0.04143985,0.9157298,0.8138204,-1.275951,-0.01975648,-0.1195467,0.05531045,0.143592,0.05679424,0.01352189,172.17.160.76,10.64.29.0,2,unknown,0,2014-11-15 17:57:57.106,8,2014-11-15 17:52:35.410,3
2014-11-15 17:58:06.851,11892,396.4,40.10479,-88.22195,235.1013,0.34,320.9766,6,10,1416095886,0.1174774,1.013214,-0.279007,43.45866,23.99073,-34.0018,216.4501,219.5324,15,0.03841184,0.1468115,0.02610484,0.9110107,0.8137801,-1.27321,0.1842535,0.2487862,0.01827271,0.1007704,0.2095414,0.2211871,172.17.160.76,10.64.29.0,2,unknown,0,2014-11-15 17:57:57.106,8,2014-11-15 17:52:35.410,3
2014-11-15 17:58:06.884,11893,396.4333,40.10479,-88.22195,235.1013,0.34,320.9766,6,10,1416095886,0.3335571,0.9732819,-0.09484863,43.04675,24.88555,-33.39676,216.0537,219.136,15,-0.3184818,-0.252293,0.2004841,0.9161897,0.8212321,-1.272125,-0.1852815,-0.1996633,0.1298119,-0.1794836,-0.01032415,-0.1513124,172.17.160.76,10.64.29.0,2,unknown,0,2014-11-15 17:57:57.106,8,2014-11-15 17:52:35.410,3
2014-11-15 17:58:06.918,11894,396.4667,40.10479,-88.22195,235.1013,0.34,320.9766,6,10,1416095886,0.2502441,1.156784,-0.165863,43.32136,24.81672,-32.85898,216.4945,219.5768,15,-0.1456725,0.2051305,0.2807955,0.9494225,0.8504655,-1.271634,-0.1717027,0.0544029,0.2871368,0.0684243,0.06638903,0.09894823,172.17.160.76,10.64.29.0,2,unknown,0,2014-11-15 17:57:57.106,8,2014-11-15 17:52:35.410,3
2014-11-15 17:58:06.951,11895,396.5,40.10479,-88.22195,235.1013,0.34,320.9766,6,10,1416095886,0.1123199,0.9275208,-0.3791962,43.32136,25.36738,-31.71616,216.1571,219.2394,15,-0.376196,-0.1363853,0.6322722,0.9893824,0.8976699,-1.264524,-0.1879507,0.1902555,0.4067988,-0.05844926,0.1543393,-0.1029698,172.17.160.76,10.64.29.0,2,unknown,0,2014-11-15 17:57:57.106,8,2014-11-15 17:52:35.410,3
2014-11-15 17:58:06.984,11896,396.5334,40.10479,-88.22195,235.1013,0.34,320.9766,6,10,1416095886,0.4192352,1.235626,-0.09284973,43.87057,24.74789,-30.70773,216.0692,219.1515,15,-0.1093853,0.2640982,0.6355051,1.047302,0.9533125,-1.255265,-0.2827609,0.06610555,0.7058379,-0.002772548,-0.05208743,-0.1238258,172.17.160.76,10.64.29.0,2,unknown,0,2014-11-15 17:57:57.106,8,2014-11-15 17:52:35.410,3
2014-11-15 17:58:07.018,11897,396.5667,40.10479,-88.22195,235.1013,0.34,320.9766,6,10,1416095886,0.1732483,1.035324,-0.2731018,44.55709,24.26607,-28.89267,216.183,219.2654,15,-0.05719538,0.3419057,0.6707483,1.078227,0.9879221,-1.245822,-0.04359701,0.3312208,0.6511413,0.1241359,0.1984439,0.1445839,172.17.160.76,10.64.29.0,2,unknown,0,2014-11-15 17:57:57.106,8,2014-11-15 17:52:35.410,3
2014-11-15 17:58:07.051,11898,396.6,40.10479,-88.22195,235.1013,0.34,320.9766,6,10,1416095886,0.3459625,1.038162,-0.1246948,45.1063,23.99073,-27.74985,215.4885,218.5708,15,-0.09813562,0.6645093,0.8955116,1.139899,1.066364,-1.213728,-0.04107778,0.4681183,0.9108542,-0.1071725,0.02225706,-0.04518056,172.17.160.76,10.64.29.0,2,unknown,0,2014-11-15 17:57:57.106,8,2014-11-15 17:52:35.410,3
2014-11-15 17:58:07.085,11899,396.6334,40.10479,-88.22195,235.1013,0.34,320.9766,6,10,1416095886,0.2591248,1.085739,-0.1268921,46.23906,23.61214,-25.29605,217.0039,220.0862,15,-0.0418095,0.8911433,0.6576607,1.153113,1.085263,-1.205802,-0.03234807,0.7316311,0.9111477,-0.03735513,0.01895351,-0.02903877,172.17.160.76,10.64.29.0,2,unknown,1,2014-11-15 17:58:07.002,8,2014-11-15 17:52:35.410,3
2014-11-15 17:58:07.118,11900,396.6667,40.10479,-88.22195,234.9216,0.38,306.9141,6,10,1416095887,0.5433502,0.9462891,-0.1233063,47.33749,22.92381,-22.80875,217.4892,220.5715,15,0.08622783,0.5346999,0.8835229,1.190266,1.162362,-1.174666,0.03661995,0.7542306,0.6711134,-0.07156547,0.1214453,-0.05747443,172.17.160.76,10.64.29.0,2,unknown,1,2014-11-15 17:58:07.002,8,2014-11-15 17:52:35.410,3
2014-11-15 17:58:07.151,11901,396.7,40.10479,-88.22195,234.9216,0.38,306.9141,6,10,1416095887,0.409256,1.07634,0.01708984,47.88671,22.57965,-21.59866,217.9352,221.0175,15,0.2027995,0.7508932,0.8152285,1.201359,1.185487,-1.158894,0.1520144,0.6018207,0.8991587,-0.03036281,0.007451866,-0.1687887,172.17.160.76,10.64.29.0,2,unknown,1,2014-11-15 17:58:07.002,8,2014-11-15 17:52:35.410,3
2014-11-15 17:58:07.184,11902,396.7334,40.10479,-88.22195,234.9216,0.38,306.9141,6,10,1416095887,0.1074371,0.7757568,-0.1783142,48.71053,21.82249,-19.44748,218.3421,221.4245,15,-0.5317808,-0.5330248,0.1584067,1.218057,1.217811,-1.127794,-0.2956772,-0.554785,0.2345025,-0.2740514,0.06084095,0.08007082,172.17.160.76,10.64.29.0,2,unknown,1,2014-11-15 17:58:07.002,8,2014-11-15 17:52:35.410,3
2014-11-15 17:58:07.218,11903,396.7667,40.10479,-88.22195,234.9216,0.38,306.9141,6,10,1416095887,0.6500549,1.08873,-0.2106934,48.88216,22.20107,-17.12814,219.71,222.7923,15,-0.1085667,1.080193,0.2183912,1.252144,1.245695,-1.128575,-0.4373029,0.4514575,0.08429375,-0.2454055,-0.04534399,-0.1194608,172.17.160.76,10.64.29.0,2,unknown,1,2014-11-15 17:58:07.002,8,2014-11-15 17:52:35.410,3
2014-11-15 17:58:07.251,11904,396.8,40.10479,-88.22195,234.9216,0.38,306.9141,6,10,1416095887,0.3804779,0.9169922,-0.1546326,49.15677,22.13224,-16.32144,221.0541,224.1364,15,0.1549419,0.4610518,-0.003459712,1.264034,1.286417,-1.124169,0.1480462,1.282415,0.2669295,0.2354763,0.186821,-0.08951151,172.17.160.76,10.64.29.0,2,unknown,1,2014-11-15 17:58:07.002,8,2014-11-15 17:52:35.410,3
2014-11-15 17:58:07.284,11905,396.8333,40.10479,-88.22195,234.9216,0.38,306.9141,6,10,1416095887,0.3737488,0.9172516,-0.258728,49.15677,22.06342,-14.77518,221.6505,224.7328,15,0.05100486,0.0003898868,0.05500812,1.249597,1.289597,-1.12046,0.08479084,-0.3252702,-0.02365396,-0.02168802,-0.08375718,0.01907556,172.17.160.76,10.64.29.0,2,unknown,1,2014-11-15 17:58:07.002,8,2014-11-15 17:52:35.410,3
2014-11-15 17:58:07.318,11906,396.8667,40.10479,-88.22195,234.9216,0.38,306.9141,6,10,1416095887,0.4479218,0.9578857,0.1201324,49.05379,21.89133,-14.74161,222.292,225.3743,15,-0.03658438,0.01842641,-0.2364765,1.245409,1.283322,-1.11896,0.1167893,0.06750847,0.07064345,0.005111761,-0.04944224,-0.2049099,172.17.160.76,10.64.29.0,2,unknown,1,2014-11-15 17:58:07.002,8,2014-11-15 17:52:35.410,3
2014-11-15 17:58:07.351,11907,396.9,40.10479,-88.22195,234.9216,0.38,306.9141,6,10,1416095887,0.3899689,1.079834,-0.2561035,48.57323,21.96016,-14.60715,222.3312,225.4135,15,0.2910055,-0.1634899,-0.3862071,1.227312,1.262759,-1.130593,0.2256666,-0.2453582,-0.4090788,0.1390692,-0.0002611934,0.01982119,172.17.160.76,10.64.29.0,2,unknown,1,2014-11-15 17:58:07.002,8,2014-11-15 17:52:35.410,3
2014-11-15 17:58:07.384,11908,396.9333,40.10479,-88.22195,234.9216,0.38,306.9141,6,10,1416095887,0.2493896,0.7736511,-0.007781982,47.92104,22.33874,-14.57358,223.5347,226.617,15,0.183181,-0.2551468,-0.7121609,1.192685,1.231191,-1.136336,0.432532,0.1057317,-0.3368854,-0.0069115,0.1727365,-0.1158887,172.17.160.76,10.64.29.0,2,unknown,1,2014-11-15 17:58:07.002,8,2014-11-15 17:52:35.410,3
2014-11-15 17:58:07.418,11909,396.9667,40.10479,-88.22195,234.9216,0.38,306.9141,6,10,1416095887,0.5327148,1.179001,-0.1668396,47.81806,22.57965,-14.27103,224.6358,227.7181,15,0.4453559,-0.2891532,-0.6963381,1.143342,1.180909,-1.156259,0.3342448,-0.2402279,-0.7087965,0.2397349,0.01696335,0.03968187,172.17.160.76,10.64.29.0,2,unknown,1,2014-11-15 17:58:07.002,8,2014-11-15 17:52:35.410,3
2014-11-15 17:58:07.451,11910,397,40.10479,-88.22195,234.9216,0.38,306.9141,6,10,1416095887,0.0841217,0.8027039,-0.1799011,47.13154,23.13032,-13.32986,227.6548,230.7371,15,0.6435867,0.06060769,-0.9425638,1.079628,1.119912,-1.166981,0.7577774,0.1132626,-0.7244519,0.04061085,0.1621881,-0.01681025,172.17.160.76,10.64.29.0,2,unknown,1,2014-11-15 17:58:07.002,8,2014-11-15 17:52:35.410,3
2014-11-15 17:58:07.484,11911,397.0334,40.10479,-88.22195,234.9216,0.38,306.9141,6,10,1416095887,0.4464264,1.006302,-0.3081207,46.03311,23.95631,-13.061,230.5248,233.6071,15,0.5703822,-0.2862349,-1.147921,1.025894,1.07206,-1.177609,0.6275133,-0.009126958,-1.04093,-0.2523424,-0.1209887,0.003358405,172.17.160.76,10.64.29.0,2,unknown,1,2014-11-15 17:58:07.002,8,2014-11-15 17:52:35.410,3
2014-11-15 17:58:07.518,11912,397.0667,40.10479,-88.22195,234.9216,0.38,306.9141,6,10,1416095887,0.2503815,0.8266449,-0.2746124,44.35114,24.54139,-13.49796,231.5556,234.6379,15,1.115332,0.4827203,-1.017473,0.8957717,0.9447484,-1.199382,1.016652,-0.09349111,-1.072553,0.04854789,0.1769498,-0.1405809,172.17.160.76,10.64.29.0,2,unknown,1,2014-11-15 17:58:07.002,8,2014-11-15 17:52:35.410,3
2014-11-15 17:58:07.551,11913,397.1,40.10479,-88.22195,234.9216,0.38,306.9141,6,10,1416095887,0.2962799,0.9815521,-0.1180115,43.52731,25.29853,-13.36349,235.0806,238.1629,15,0.9686583,-0.5797195,-1.434373,0.7233644,0.8006911,-1.201628,1.136614,0.4256293,-1.127589,-0.01663861,-0.09350114,0.07473754,172.17.160.76,10.64.29.0,2,unknown,1,2014-11-15 17:58:07.002,8,2014-11-15 17:52:35.410,3
2014-11-15 17:58:07.584,11914,397.1334,40.10479,-88.22195,234.9216,0.38,306.9141,6,10,1416095887,0.1060333,0.901001,-0.2913666,41.84534,25.88361,-12.92654,239.6333,242.7156,15,0.8685146,-0.5127656,-1.438953,0.5811793,0.6580815,-1.205392,1.011854,-0.7729709,-1.422157,0.06862926,0.1751972,0.1678523,172.17.160.76,10.64.29.0,2,unknown,1,2014-11-15 17:58:07.002,8,2014-11-15 17:52:35.410,3
2014-11-15 17:58:07.618,11915,397.1667,40.10479,-88.22195,234.9216,0.38,306.9141,6,10,1416095887,0.2310944,0.7556305,-0.223999,39.71713,26.57193,-12.59036,244.4378,247.5201,15,0.6464624,0.2147083,-1.503287,0.4373019,0.508866,-1.205235,0.8919646,-0.1004603,-1.441519,-0.06812306,-0.03292241,0.02081393,172.17.160.76,10.64.29.0,2,unknown,1,2014-11-15 17:58:07.002,8,2014-11-15 17:52:35.410,3
2014-11-15 17:58:07.651,11916,397.2,40.10479,-88.22195,234.9216,0.38,306.9141,6,10,1416095887,0.1957703,0.8715973,-0.325592,38.55005,26.98493,-12.5231,248.4092,251.4915,15,0.6676134,-0.4417343,-1.614033,0.2493103,0.3369155,-1.2026,0.7590345,-0.212998,-1.578545,0.06027428,0.01373838,0.06186567,172.17.160.76,10.64.29.0,2,unknown,1,2014-11-15 17:58:07.002,8,2014-11-15 17:52:35.410,3
2014-11-15 17:58:07.684,11917,397.2334,40.10479,-88.22195,234.9216,0.38,306.9141,6,10,1416095887,-0.05960083,0.7045135,-0.3468323,36.42184,28.2239,-12.2543,251.0621,254.1444,15,0.4274536,-0.2130513,-1.456953,0.1099147,0.1964697,-1.195523,0.5668974,-0.2878758,-1.515593,0.1242212,-0.05881019,0.03388349,172.17.160.76,10.64.29.0,2,unknown,1,2014-11-15 17:58:07.002,8,2014-11-15 17:52:35.410,3
2014-11-15 17:58:07.718,11918,397.2667,40.10479,-88.22195,234.9216,0.38,306.9141,6,10,1416095887,0.1649475,0.8685455,-0.394516,35.1861,28.6369,-11.98538,254.8468,257.9291,15,0.3881946,-0.2816293,-1.535717,-0.01312381,0.07720334,-1.186797,0.468919,-0.1507438,-1.513442,-0.02707829,-0.1489602,0.01584969,172.17.160.76,10.64.29.0,2,unknown,1,2014-11-15 17:58:07.002,8,2014-11-15 17:52:35.410,3
2014-11-15 17:58:07.751,11919,397.3,40.10479,-88.22195,234.9216,0.38,306.9141,6,10,1416095887,-0.05645752,0.6351166,-0.3213043,33.40115,28.91223,-11.71646,256.9936,260.0759,15,0.4556189,0.007787616,-1.195832,-0.1579521,-0.06261405,-1.166998,0.5437676,-0.01773326,-1.200947,0.004764671,-0.1490065,-0.08779105,172.17.160.76,10.64.29.0,2,unknown,1,2014-11-15 17:58:07.002,8,2014-11-15 17:52:35.410,3
2014-11-15 17:58:07.784,11920,397.3333,40.10479,-88.22195,234.9216,0.38,306.9141,6,10,1416095887,0.1148987,0.7908936,-0.302063,31.23862,29.15314,-11.48111,260.2286,263.3109,15,0.2931043,-0.2081271,-1.093397,-0.2432332,-0.1390409,-1.149426,0.3923024,-0.02702969,-1.174953,0.08213788,-0.2138447,0.1176035,172.17.160.76,10.64.29.0,2,unknown,1,2014-11-15 17:58:07.002,8,2014-11-15 17:52:35.410,3
2014-11-15 17:58:07.818,11921,397.3667,40.10479,-88.22195,234.9216,0.38,306.9141,6,10,1416095887,-0.1638336,0.688858,-0.3803711,30.75805,29.35965,-10.94327,269.266,272.3483,15,0.1433233,0.1190449,-0.8331732,-0.3104611,-0.202196,-1.134571,0.2773999,0.0996682,-0.8660259,0.08628545,-0.1433831,0.0760228,172.17.160.76,10.64.29.0,2,unknown,1,2014-11-15 17:58:07.002,8,2014-11-15 17:52:35.410,3
2014-11-15 17:58:07.851,11922,397.4,40.10479,-88.22195,234.9216,0.38,306.9141,6,10,1416095887,0.1034241,0.8309021,-0.2995758,29.41934,30.08239,-10.3718,273.6505,276.7328,15,0.02754534,-0.05494847,-0.6638187,-0.3821118,-0.2662245,-1.119278,0.1320233,-0.4166761,-0.8671391,0.05050971,-0.1741844,0.09445313,172.17.160.76,10.64.29.0,2,unknown,1,2014-11-15 17:58:07.002,8,2014-11-15 17:52:35.410,3
2014-11-15 17:58:07.885,11923,397.4333,40.10479,-88.22195,234.9216,0.38,306.9141,6,10,1416095887,-0.1114807,0.620163,-0.3575439,29.17906,30.5298,-9.867645,275.3487,278.431,15,-0.1277937,0.1737878,-0.3531413,-0.4245758,-0.3058824,-1.110968,0.0249492,0.4351596,-0.4949798,0.1668144,-0.15092,0.0561743,172.17.160.76,10.64.29.0,2,unknown,1,2014-11-15 17:58:07.002,8,2014-11-15 17:52:35.410,3
2014-11-15 17:58:07.918,11924,397.4667,40.10479,-88.22195,234.9216,0.38,306.9141,6,10,1416095887,-0.139801,0.9037018,-0.4617004,27.80602,30.59865,-8.926483,278.1973,281.2796,15,-0.08341766,-0.5992011,-0.4178825,-0.4411734,-0.3114855,-1.109445,-0.06202538,0.2408742,-0.3375165,0.02494835,-0.2752889,0.06619319,172.17.160.76,10.64.29.0,2,unknown,1,2014-11-15 17:58:07.002,8,2014-11-15 17:52:35.410,3
2014-11-15 17:58:07.951,11925,397.5,40.10479,-88.22195,234.9216,0.38,306.9141,6,10,1416095887,-0.07145691,0.6641235,-0.3234558,27.49709,30.7019,-8.018951,280.2189,283.3012,15,-0.2100883,0.6896138,-0.1526812,-0.4806587,-0.3524345,-1.104095,-0.0693239,0.6514009,-0.2875608,0.03627903,-0.1513583,-0.002594071,172.17.160.76,10.64.29.0,2,unknown,1,2014-11-15 17:58:07.002,8,2014-11-15 17:52:35.410,3
2014-11-15 17:58:07.984,11926,397.5334,40.10479,-88.22195,234.9216,0.38,306.9141,6,10,1416095887,-0.2576447,0.9332733,-0.4587708,27.35979,30.97723,-7.817352,280.9714,284.0537,15,-0.1430546,-0.6009215,-0.08542436,-0.4888811,-0.3482968,-1.107808,-0.1828037,-0.2634353,-0.008537756,0.08097469,-0.2305982,0.09635079,172.17.160.76,10.64.29.0,2,unknown,1,2014-11-15 17:58:07.002,8,2014-11-15 17:52:35.410,3
2014-11-15 17:58:08.018,11927,397.5667,40.10479,-88.22195,234.9216,0.38,306.9141,6,10,1416095887,-0.05500793,0.7159119,-0.3885345,27.35979,31.11488,-7.682892,281.1118,284.1942,15,-0.2375979,0.3830387,0.0538579,-0.4956052,-0.3678981,-1.110247,-0.09385592,0.01002404,-0.09341095,-0.06859428,-0.04790822,0.03927325,172.17.160.76,10.64.29.0,2,unknown,1,2014-11-15 17:58:07.002,8,2014-11-15 17:52:35.410,3
2014-11-15 17:58:08.051,11928,397.6,40.10479,-88.22195,234.9216,0.38,306.9141,6,10,1416095887,-0.2486725,0.9197083,-0.3842773,27.25681,31.42464,-7.918121,281.0191,284.1014,15,-0.130758,-0.3920908,0.1321716,-0.4950345,-0.3584171,-1.117059,-0.1364452,-0.2376057,0.1793067,0.03094404,-0.1088524,-0.07303181,172.17.160.76,10.64.29.0,2,unknown,1,2014-11-15 17:58:07.002,8,2014-11-15 17:52:35.410,3
2014-11-15 17:58:08.084,11929,397.6334,40.10479,-88.22195,234.9216,0.38,306.9141,6,10,1416095887,-0.02203369,0.7552795,-0.2549744,27.39411,31.28698,-8.657623,279.9179,283.0002,15,-0.1622518,0.03147963,0.07826152,-0.491222,-0.3611734,-1.119542,-0.04942813,-0.02426616,0.0123901,-0.09400425,-0.006895481,0.1438293,172.17.160.76,10.64.29.0,2,unknown,1,2014-11-15 17:58:07.002,8,2014-11-15 17:52:35.410,3
2014-11-15 17:58:08.118,11930,397.6667,40.10479,-88.22195,234.7763,0,302.6953,6,10,1416095888,-0.2896729,0.8752441,-0.4517365,27.56574,31.3214,-9.296173,279.3646,282.4469,15,-0.2186929,-0.2246755,0.3467404,-0.4834929,-0.3533509,-1.125458,-0.2092483,-0.1005267,0.3172322,0.1440732,-0.1405632,0.1100824,172.17.160.76,10.64.29.0,2,unknown,1,2014-11-15 17:58:07.002,8,2014-11-15 17:52:35.410,3
2014-11-15 17:58:08.151,11931,397.7,40.10479,-88.22195,234.7763,0,302.6953,6,10,1416095888,-0.04605103,0.7264099,-0.2820282,27.77169,30.9084,-10.3718,277.5099,280.5922,15,-0.2100885,-0.01301434,0.3754213,-0.4571021,-0.3340005,-1.135619,-0.09821197,0.0267538,0.294134,-0.1269045,-0.07740363,0.01889565,172.17.160.76,10.64.29.0,2,unknown,1,2014-11-15 17:58:07.002,8,2014-11-15 17:52:35.410,3
2014-11-15 17:58:08.184,11932,397.7334,40.10479,-88.22195,234.7763,0,302.6953,6,10,1416095888,0.051651,0.9095764,-0.2739258,28.0463,30.83957,-10.97684,276.1457,279.228,15,-0.3308355,0.06813058,0.8433528,-0.4341148,-0.3117353,-1.143422,-0.201375,-0.0254387,0.5532469,0.1819663,-0.176781,0.09390728,172.17.160.76,10.64.29.0,2,unknown,1,2014-11-15 17:58:07.002,8,2014-11-15 17:52:35.410,3
2014-11-15 17:58:08.218,11933,397.7667,40.10479,-88.22195,234.7763,0,302.6953,6,10,1416095888,-0.09950256,0.7564087,-0.2314301,28.35524,30.94283,-10.87607,276.2172,279.2995,15,-0.3821247,-0.1870519,0.817787,-0.4015652,-0.2813907,-1.152881,-0.2650711,0.135213,0.8589767,0.2578444,-0.1044279,0.1380167,172.17.160.76,10.64.29.0,2,unknown,1,2014-11-15 17:58:07.002,8,2014-11-15 17:52:35.410,3
2014-11-15 17:58:08.251,11934,397.8,40.10479,-88.22195,234.7763,0,302.6953,6,10,1416095888,-0.006851196,0.8048096,-0.3549042,29.38502,31.01166,-11.21219,273.6106,276.6929,15,-0.6008427,0.2616907,0.9908062,-0.3073049,-0.1942424,-1.180279,-0.4944375,0.1367969,0.9139794,-0.05300248,-0.1579122,0.04158401,172.17.160.76,10.64.29.0,2,unknown,1,2014-11-15 17:58:07.002,8,2014-11-15 17:52:35.410,3
2014-11-15 17:58:08.285,11935,397.8333,40.10479,-88.22195,234.7763,0,302.6953,6,10,1416095888,-0.02037048,0.974762,-0.303009,29.69395,30.63308,-11.11136,273.2892,276.3715,15,-0.5094305,0.1846023,1.060116,-0.259077,-0.1431791,-1.194221,-0.5415364,0.3331856,1.027707,0.1635566,-0.1977824,0.07761283,172.17.160.76,10.64.29.0,2,unknown,1,2014-11-15 17:58:07.002,8,2014-11-15 17:52:35.410,3
2014-11-15 17:58:08.318,11936,397.8667,40.10479,-88.22195,234.7763,0,302.6953,6,10,1416095888,0.1321411,0.5167542,-0.2391968,31.10132,30.6675,-11.34665,269.8185,272.9008,15,-0.6754975,0.1276645,0.9670274,-0.1583542,-0.04177236,-1.213479,-0.4015519,0.04484671,0.8441508,-0.09672198,-0.1924079,-0.04293782,172.17.160.76,10.64.29.0,2,unknown,1,2014-11-15 17:58:07.002,8,2014-11-15 17:52:35.410,3
2014-11-15 17:58:08.351,11937,397.9,40.10479,-88.22195,234.7763,0,302.6953,6,10,1416095888,-0.1004486,1.326767,-0.3145447,32.37138,30.28892,-11.1113,268.631,271.7133,15,-0.4622872,0.7333206,1.12121,-0.03467824,0.0861216,-1.23613,-0.6015918,0.623672,1.219467,0.1695934,-0.2222909,0.1934325,172.17.160.76,10.64.29.0,2,unknown,1,2014-11-15 17:58:07.002,8,2014-11-15 17:52:35.410,3
2014-11-15 17:58:08.384,11938,397.9333,40.10479,-88.22195,234.7763,0,302.6953,6,10,1416095888,0.001144409,0.5541229,-0.47435,34.39661,29.70383,-11.01047,265.6885,268.7708,15,-0.3597425,0.1850237,0.5606609,0.05625751,0.193062,-1.241467,-0.2108532,0.5374385,0.6570867,-0.1624994,0.3402854,-0.007657744,172.17.160.76,10.64.29.0,2,unknown,1,2014-11-15 17:58:07.002,8,2014-11-15 17:52:35.410,3
2014-11-15 17:58:08.417,11939,397.9667,40.10479,-88.22195,234.7763,0,302.6953,6,10,1416095888,0.1946106,1.066025,-0.1190796,35.32341,29.39408,-10.77518,264.7343,267.8166,15,-0.625641,0.3337282,1.101673,0.1286184,0.267741,-1.249472,-0.6562249,0.243759,0.8567664,0.1928302,-0.6072195,-0.01285763,172.17.160.76,10.64.29.0,2,unknown,1,2014-11-15 17:58:07.002,8,2014-11-15 17:52:35.410,3
2014-11-15 17:58:08.451,11940,398,40.10479,-88.22195,234.7763,0,302.6953,6,10,1416095888,-0.08666992,1.219818,-0.412735,36.93673,28.74019,-10.47269,262.7711,265.8534,15,-0.3254415,-0.09438562,0.4274374,0.2713731,0.4198135,-1.25411,-0.1741993,0.3867785,0.8334162,-0.0541011,0.4690693,0.1902607,172.17.160.76,10.64.29.0,2,unknown,1,2014-11-15 17:58:07.002,8,2014-11-15 17:52:35.410,3
2014-11-15 17:58:08.484,11941,398.0334,40.10479,-88.22195,234.7763,0,302.6953,6,10,1416095888,0.3359222,0.6196747,-0.1594543,38.24112,27.91419,-11.01053,258.9082,261.9905,15,-0.4814396,0.2924944,0.9968902,0.3279019,0.4752331,-1.253989,-0.4456073,-0.06450785,0.5741158,-0.1090788,-0.2543425,-0.2089193,172.17.160.76,10.64.29.0,2,unknown,1,2014-11-15 17:58:07.002,8,2014-11-15 17:52:35.410,3
2014-11-15 17:58:08.517,11942,398.0667,40.10479,-88.22195,234.7763,0,302.6953,6,10,1416095888,0.2703247,1.456177,0.1398773,38.85898,27.63887,-10.87613,258.7295,261.8118,15,-0.1451055,0.0525463,0.7608411,0.4253767,0.576956,-1.251438,-0.3336204,0.5139218,1.057594,0.1646663,-0.3297624,0.1036818,172.17.160.76,10.64.29.0,2,unknown,1,2014-11-15 17:58:07.002,8,2014-11-15 17:52:35.410,3
2014-11-15 17:58:08.551,11943,398.1,40.10479,-88.22195,234.7763,0,302.6953,6,10,1416095888,0.2583466,0.5607147,-0.429718,40.67826,27.2603,-11.24582,255.2692,258.3515,15,-0.3946658,-0.4399846,0.6700175,0.5090649,0.656011,-1.239932,-0.1896906,-0.5907041,0.4185944,-0.03624092,0.3703543,0.1894058,172.17.160.76,10.64.29.0,2,unknown,1,2014-11-15 17:58:07.002,8,2014-11-15 17:52:35.410,3
2014-11-15 17:58:08.584,11944,398.1334,40.10479,-88.22195,234.7763,0,302.6953,6,10,1416095888,0.2035217,1.024551,-0.1541138,41.94831,26.67523,-11.54837,254.0364,257.1187,15,-0.4191397,-0.4730887,0.6465822,0.5714958,0.7012545,-1.235565,-0.3758333,-0.2930356,0.709582,-0.1353963,-0.3244613,-0.2204293,172.17.160.76,10.64.29.0,2,unknown,1,2014-11-15 17:58:07.002,8,2014-11-15 17:52:35.410,3
2014-11-15 17:58:08.618,11945,398.1667,40.10479,-88.22195,234.7763,0,302.6953,6,10,1416095888,0.08184814,0.8538361,-0.2729034,42.1886,26.29666,-12.5231,251.3404,254.4227,15,0.01713318,-0.5159938,0.1967772,0.6317022,0.7420757,-1.224378,0.1241321,-0.3555235,0.3443538,0.2006686,0.3740413,0.3068519,172.17.160.76,10.64.29.0,2,unknown,1,2014-11-15 17:58:07.002,8,2014-11-15 17:52:35.410,3
2014-11-15 17:58:08.651,11946,398.2,40.10479,-88.22195,234.7763,0,302.6953,6,10,1416095888,0.01701355,0.6809692,-0.4873962,42.90945,25.22976,-13.83408,246.4543,249.5366,15,-0.1188209,-0.5209036,0.3830198,0.6388107,0.7397069,-1.219955,0.06457528,-0.4804095,0.2653694,-0.149822,-0.08524789,-0.01903286,172.17.160.76,10.64.29.0,2,unknown,1,2014-11-15 17:58:07.002,8,2014-11-15 17:52:35.410,3
2014-11-15 17:58:08.684,11947,398.2334,40.10479,-88.22195,234.7763,0,302.6953,6,10,1416095888,0.5995178,1.199173,0.037323,43.32136,24.54144,-14.64078,244.8097,247.892,15,0.2554525,0.02217082,0.1382143,0.6675192,0.7527233,-1.210911,0.09060289,-0.04078556,0.230435,0.00967581,-0.1472104,0.01942728,172.17.160.76,10.64.29.0,2,unknown,1,2014-11-15 17:58:07.002,8,2014-11-15 17:52:35.410,3
2014-11-15 17:58:08.718,11948,398.2667,40.10479,-88.22195,234.7763,0,302.6953,6,10,1416095888,-0.007629395,0.5809937,-0.6551056,44.31681,24.7135,-15.41385,243.7122,246.7945,15,-0.1231981,-0.3050411,0.1219869,0.6415436,0.7259122,-1.196648,0.410737,-0.383471,0.0374263,-0.2238284,0.2265903,-0.1420347,172.17.160.76,10.64.29.0,2,unknown,1,2014-11-15 17:58:07.002,8,2014-11-15 17:52:35.410,3
2014-11-15 17:58:08.751,11949,398.3,40.10479,-88.22195,234.7763,0,302.6953,6,10,1416095888,0.5986481,1.082611,0.1222076,44.6944,24.33493,-16.92642,242.4267,245.509,15,0.3676273,-0.1296533,0.02023177,0.6453493,0.7207229,-1.193099,-0.07306758,0.02084657,0.07958034,-0.05628075,-0.4221006,-0.206277,172.17.160.76,10.64.29.0,2,unknown,1,2014-11-15 17:58:07.002,8,2014-11-15 17:52:35.410,3
2014-11-15 17:58:08.784,11950,398.3333,40.10479,-88.22195,234.7763,0,302.6953,6,10,1416095888,-0.2027588,0.865036,-0.5953827,44.72872,23.95636,-18.37173,240.9673,244.0496,15,-0.003542004,-0.6618546,-0.4078967,0.6298143,0.7045716,-1.185769,0.4817036,-0.1678468,-0.1092501,0.3700429,0.5475313,0.4736537,172.17.160.76,10.64.29.0,2,unknown,1,2014-11-15 17:58:07.002,8,2014-11-15 17:52:35.410,3
2014-11-15 17:58:08.818,11951,398.3667,40.10479,-88.22195,234.7763,0,302.6953,6,10,1416095888,0.3802948,0.7607117,-0.1384888,44.55709,23.44011,-19.41373,239.8316,242.9139,15,-0.4884794,-0.3723451,-0.3727118,0.6032034,0.6652661,-1.189654,-0.249339,-0.573787,-0.3018402,-0.4323709,-0.06320436,-0.3027257,172.17.160.76,10.64.29.0,2,unknown,1,2014-11-15 17:58:07.002,8,2014-11-15 17:52:35.410,3
2014-11-15 17:58:08.851,11952,398.4,40.10479,-88.22195,234.7763,0,302.6953,6,10,1416095888,0.04896545,1.159882,-0.4769592,43.93922,23.6466,-20.95993,239.1039,242.1862,15,-0.1546402,-0.5453802,-0.4714679,0.5953045,0.640628,-1.207488,-0.03714259,-0.6219263,-0.3315484,0.375533,0.2662015,0.2578371,172.17.160.76,10.64.29.0,2,unknown,1,2014-11-15 17:58:07.002,8,2014-11-15 17:52:35.410,3
2014-11-15 17:58:08.884,11953,398.4333,40.10479,-88.22195,234.7763,0,302.6953,6,10,1416095888,0.02154541,0.6206512,-0.6651764,43.76759,24.23168,-23.21201,237.3032,240.3855,15,-0.3703757,-0.5198101,-0.3346558,0.5697522,0.6011958,-1.21675,-0.1763579,-0.454749,-0.4341721,-0.336818,-0.1350294,-0.2412083,172.17.160.76,10.64.29.0,2,unknown,1,2014-11-15 17:58:07.002,8,2014-11-15 17:52:35.410,3
2014-11-15 17:58:08.918,11954,398.4667,40.10479,-88.22195,234.7763,0,302.6953,6,10,1416095888,0.2793732,1.295059,-0.1212769,43.63029,24.85117,-24.15317,236.9939,240.0762,15,-0.1030582,-0.3947247,-0.2161121,0.5703921,0.5834102,-1.230155,-0.1485694,-0.3894658,-0.08788937,0.3513277,0.2313944,0.185537,172.17.160.76,10.64.29.0,2,unknown,1,2014-11-15 17:58:07.002,8,2014-11-15 17:52:35.410,3
2014-11-15 17:58:08.951,11955,398.5,40.10479,-88.22195,234.7763,0,302.6953,6,10,1416095888,-0.06300354,0.8085327,-0.6596222,43.56164,25.1265,-26.17001,235.6991,238.7814,15,-0.07644737,-0.4829978,-0.2251684,0.5524924,0.5570251,-1.233282,0.05457503,-0.2867188,-0.2590077,-0.04797274,0.2096787,0.01112615,172.17.160.76,10.64.29.0,2,unknown,1,2014-11-15 17:58:07.002,8,2014-11-15 17:52:35.410,3
2014-11-15 17:58:08.984,11956,398.5334,40.10479,-88.22195,234.7763,0,302.6953,6,10,1416095888,0.3559875,1.109436,-0.2556305,43.28703,24.85117,-27.98514,234.2706,237.353,15,-0.2070009,-0.5860291,-0.08722945,0.544488,0.5352398,-1.238436,-0.2243702,-0.5690723,-0.09704337,-0.211429,-0.2353751,-0.4116778,172.17.160.76,10.64.29.0,2,unknown,1,2014-11-15 17:58:07.002,8,2014-11-15 17:52:35.410,3
2014-11-15 17:58:09.018,11957,398.5667,40.10479,-88.22195,234.7763,0,302.6953,6,10,1416095888,0.1063232,1.186371,-0.2732391,42.90945,24.67908,-28.35483,233.8976,236.9799,15,0.1402255,-0.1941902,-0.2393197,0.5263587,0.5012692,-1.241982,0.1922234,-0.3264961,-0.3117454,0.1312467,0.331345,0.2891743,172.17.160.76,10.64.29.0,2,unknown,1,2014-11-15 17:58:07.002,8,2014-11-15 17:52:35.410,3
2014-11-15 17:58:09.051,11958,398.6,40.10479,-88.22195,234.7763,0,302.6953,6,10,1416095888,0.1894531,0.8139801,-0.4604797,42.46321,24.7135,-29.8674,230.4193,233.5016,15,-0.1526963,-0.6380599,-0.07921493,0.4996737,0.4699686,-1.240189,0.1255478,-0.3729223,-0.1312884,-0.1130242,0.1000224,-0.1497403,172.17.160.76,10.64.29.0,2,unknown,1,2014-11-15 17:58:07.002,8,2014-11-15 17:52:35.410,3
2014-11-15 17:58:09.084,11959,398.6334,40.10479,-88.22195,234.7763,0,302.6953,6,10,1416095888,0.1034546,1.167831,-0.0846405,42.11995,24.36935,-30.80856,230.1604,233.2427,15,-0.09625597,-0.2850243,-0.3227695,0.4948471,0.449038,-1.242723,-0.1262369,-0.4638692,-0.08942676,-0.008085111,-0.0668584,-0.1538763,172.17.160.76,10.64.29.0,2,unknown,1,2014-11-15 17:58:07.002,8,2014-11-15 17:52:35.410,3
2014-11-15 17:58:09.117,11960,398.6667,40.10479,-88.22195,234.9156,0,307.9688,6,10,1416095889,0.1236572,0.9865875,-0.3644867,41.91399,24.78235,-32.62363,229.1428,232.2251,15,-0.1582418,-0.4560083,-0.314946,0.4734061,0.4204556,-1.247536,0.01137891,-0.121908,-0.3874793,0.00983449,0.2699808,0.1938473,172.17.160.76,10.64.29.0,2,unknown,1,2014-11-15 17:58:07.002,8,2014-11-15 17:52:35.410,3
2014-11-15 17:58:09.150,11961,398.7,40.10479,-88.22195,234.9156,0,307.9688,6,10,1416095889,-0.05511475,0.9350433,-0.3610229,41.22747,24.92001,-34.16983,228.4758,231.5581,15,-0.5604609,-0.6338771,-0.2549335,0.4452893,0.3766912,-1.258035,-0.4031338,-0.6400914,-0.2262493,0.03952857,-0.01899246,-0.1093936,172.17.160.76,10.64.29.0,2,unknown,1,2014-11-15 17:58:07.002,8,2014-11-15 17:52:35.410,3
2014-11-15 17:58:09.184,11962,398.7334,40.10479,-88.22195,234.9156,0,307.9688,6,10,1416095889,0.1229248,1.128098,-0.2294159,40.30067,25.36742,-34.87576,227.9605,231.0428,15,-0.3336286,-0.2879335,-0.4418435,0.4195989,0.3355077,-1.279085,-0.3391901,-0.2019962,-0.4619538,0.05066605,0.1594344,0.1214406,172.17.160.76,10.64.29.0,2,unknown,1,2014-11-15 17:58:07.002,8,2014-11-15 17:52:35.410,3
2014-11-15 17:58:09.218,11963,398.7667,40.10479,-88.22195,234.9156,0,307.9688,6,10,1416095889,-0.02778625,0.821167,-0.6388855,39.5455,26.05573,-35.4136,227.6689,230.7512,15,-0.307434,-0.3932642,-0.3172413,0.3983014,0.3106088,-1.286326,-0.1892581,-0.2426342,-0.3459663,0.01303881,0.1782663,-0.09030941,172.17.160.76,10.64.29.0,2,unknown,1,2014-11-15 17:58:07.002,8,2014-11-15 17:52:35.410,3
2014-11-15 17:58:09.251,11964,398.8,40.10479,-88.22195,234.9156,0,307.9688,6,10,1416095889,0.1263275,1.118759,-0.1219788,38.99629,26.88172,-35.74973,227.5189,230.6012,15,-0.30102,-0.3230478,-0.3052193,0.3840525,0.2862098,-1.297143,-0.3733013,-0.3973392,-0.1592711,-0.1055477,-0.2135988,-0.2275598,172.17.160.76,10.64.29.0,2,unknown,1,2014-11-15 17:58:07.002,8,2014-11-15 17:52:35.410,3
2014-11-15 17:58:09.284,11965,398.8333,40.10479,-88.22195,234.9156,0,307.9688,6,10,1416095889,0.03318787,1.019379,-0.3223724,38.72168,28.05188,-35.95145,227.7987,230.881,15,-0.1594629,0.01067395,-0.1447697,0.3480418,0.242703,-1.309237,-0.03931013,0.03287089,-0.155072,0.0239751,0.161667,0.0777752,172.17.160.76,10.64.29.0,2,unknown,1,2014-11-15 17:58:07.002,8,2014-11-15 17:52:35.410,3
2014-11-15 17:58:09.318,11966,398.8667,40.10479,-88.22195,234.9156,0,307.9688,6,10,1416095889,0.08251953,0.9984131,-0.1499634,38.68736,27.81097,-36.11954,227.4104,230.4927,15,-0.25968,0.009677395,-0.1422767,0.338782,0.2359515,-1.314045,-0.185509,0.05354041,-0.1002802,-0.1163241,-0.0705373,-0.04310486,172.17.160.76,10.64.29.0,2,unknown,1,2014-11-15 17:58:07.002,8,2014-11-15 17:52:35.410,3
2014-11-15 17:58:09.351,11967,398.9,40.10479,-88.22195,234.9156,0,307.9688,6,10,1416095889,0.1742096,1.147888,-0.2456055,38.17246,27.77656,-36.62363,227.2572,230.3395,15,-0.09803629,0.004203533,-0.01234855,0.3289594,0.2285163,-1.319775,-0.1183098,0.06086477,-0.1111081,0.0962882,0.121215,0.1142962,172.17.160.76,10.64.29.0,2,unknown,1,2014-11-15 17:58:07.002,8,2014-11-15 17:52:35.410,3
2014-11-15 17:58:09.384,11968,398.9333,40.10479,-88.22195,234.9156,0,307.9688,6,10,1416095889,0.09465027,1.047333,-0.2782898,38.06948,27.6733,-36.92618,226.9568,230.0391,15,-0.05359638,-0.1387028,0.06209772,0.3260745,0.2272076,-1.321164,-0.03229688,0.07124764,0.003264452,0.1185602,0.1788849,-0.004906964,172.17.160.76,10.64.29.0,2,unknown,1,2014-11-15 17:58:07.002,8,2014-11-15 17:52:35.410,3
2014-11-15 17:58:09.418,11969,398.9667,40.10479,-88.22195,234.9156,0,307.9688,6,10,1416095889,0.2167664,1.167786,-0.1612396,38.00083,27.19148,-37.3295,226.0873,229.1696,15,0.1072074,-0.06915484,0.1361656,0.337239,0.2345943,-1.319557,0.06204374,-0.2148957,0.1086139,0.03686251,0.07872771,-0.03649476,172.17.160.76,10.64.29.0,2,unknown,1,2014-11-15 17:58:07.002,8,2014-11-15 17:52:35.410,3
2014-11-15 17:58:09.451,11970,399,40.10479,-88.22195,234.9156,0,307.9688,6,10,1416095889,0.03076172,0.9695282,-0.2933197,38.41274,27.4668,-37.59836,225.7625,228.8448,15,0.0442929,-0.07866286,0.1395355,0.3539886,0.2516798,-1.311839,0.1953839,0.1584602,0.1727021,0.1148646,0.1780873,0.0369455,172.17.160.76,10.64.29.0,2,unknown,1,2014-11-15 17:58:07.002,8,2014-11-15 17:52:35.410,3
2014-11-15 17:58:09.484,11971,399.0334,40.10479,-88.22195,234.9156,0,307.9688,6,10,1416095889,0.1394806,1.025208,-0.1811676,38.58437,27.36355,-37.90091,225.5816,228.6639,15,-0.02635331,-0.4036798,0.1518878,0.3640288,0.2630197,-1.308005,0.1100218,-0.01164152,0.1551422,-0.03677979,0.003859693,-0.04247616,172.17.160.76,10.64.29.0,2,unknown,1,2014-11-15 17:58:07.002,8,2014-11-15 17:52:35.410,3
2014-11-15 17:58:09.518,11972,399.0667,40.10479,-88.22195,234.9156,0,307.9688,6,10,1416095889,0.09680176,1.087311,-0.1743622,38.99628,27.43238,-38.03537,224.8706,227.9529,15,0.07101239,0.1479136,0.174596,0.3854975,0.2719831,-1.304036,0.09274051,-0.2665779,0.1644791,0.09934995,0.1460572,0.09571408,172.17.160.76,10.64.29.0,2,unknown,1,2014-11-15 17:58:07.002,8,2014-11-15 17:52:35.410,3
2014-11-15 17:58:09.551,11973,399.1,40.10479,-88.22195,234.9156,0,307.9688,6,10,1416095889,0.1276093,0.9129333,-0.2584991,38.65302,26.88172,-37.56479,224.6912,227.7735,15,-0.07769053,-0.3478797,0.2213702,0.4017574,0.2903742,-1.298647,0.1281423,0.1650759,0.2005869,-0.07566401,0.08000229,-0.003146924,172.17.160.76,10.64.29.0,2,unknown,1,2014-11-15 17:58:07.002,8,2014-11-15 17:52:35.410,3
2014-11-15 17:58:09.584,11974,399.1334,40.10479,-88.22195,234.9156,0,307.9688,6,10,1416095889,0.1129608,1.170609,-0.1273804,38.34409,26.91616,-36.45547,224.666,227.7483,15,0.05476737,0.1762363,0.2660935,0.4392957,0.3198736,-1.294655,0.03578363,-0.1131765,0.3544438,0.06691654,0.04699489,0.04517716,172.17.160.76,10.64.29.0,2,unknown,1,2014-11-15 17:58:07.002,8,2014-11-15 17:52:35.410,3
2014-11-15 17:58:09.618,11975,399.1667,40.10479,-88.22195,234.9156,0,307.9688,6,10,1416095889,0.04125977,0.8837128,-0.5028381,38.48139,27.05382,-36.32101,224.0861,227.1684,15,-0.02054655,0.1024108,0.4761601,0.4750568,0.3621833,-1.286598,0.09903085,0.2372343,0.327392,-0.04317855,0.09437351,-0.07827137,172.17.160.76,10.64.29.0,2,unknown,1,2014-11-15 17:58:07.002,8,2014-11-15 17:52:35.410,3
2014-11-15 17:58:09.651,11976,399.2,40.10479,-88.22195,234.9156,0,307.9688,6,10,1416095889,0.1483002,1.133774,-0.2420044,39.03061,26.91616,-35.71603,224.3844,227.4667,15,0.2034282,0.5183033,0.5475693,0.5183794,0.409685,-1.279726,0.07604712,0.3260322,0.5476724,-0.02173389,-0.02791415,-0.1551517,172.17.160.76,10.64.29.0,2,unknown,1,2014-11-15 17:58:07.002,8,2014-11-15 17:52:35.410,3
2014-11-15 17:58:09.684,11977,399.2334,40.10479,-88.22195,234.9156,0,307.9688,6,10,1416095889,0.103714,1.006592,-0.3503571,39.99174,25.81485,-34.70761,224.2176,227.2999,15,0.1785069,0.2861732,0.6218055,0.5601605,0.4656564,-1.265996,0.3171328,0.5373771,0.5489439,0.01582485,0.2053033,0.01991981,172.17.160.76,10.64.29.0,2,unknown,1,2014-11-15 17:58:07.002,8,2014-11-15 17:52:35.410,3
2014-11-15 17:58:09.718,11978,399.2667,40.10479,-88.22195,234.9156,0,307.9688,6,10,1416095889,0.006347656,0.8612213,-0.4806213,40.6096,25.19536,-33.69919,225.2452,228.3275,15,-0.1349093,0.5077503,0.67722,0.6024885,0.5176585,-1.250634,0.1363765,0.326025,0.6918078,-0.0520247,0.05740759,-0.07687067,172.17.160.76,10.64.29.0,2,unknown,1,2014-11-15 17:58:07.002,8,2014-11-15 17:52:35.410,3
2014-11-15 17:58:09.751,11979,399.3,40.10479,-88.22195,234.9156,0,307.9688,6,10,1416095889,0.2225647,1.074493,-0.203064,41.57073,24.30054,-31.48074,225.434,228.5163,15,-0.001752094,0.4972894,0.7074493,0.6800455,0.6151098,-1.237238,-0.1117891,0.7141578,0.7160105,-0.1547804,0.008546718,-0.1521592,172.17.160.76,10.64.29.0,2,unknown,1,2014-11-15 17:58:07.002,8,2014-11-15 17:52:35.410,3
2014-11-15 17:58:09.784,11980,399.3333,40.10479,-88.22195,234.9156,0,307.9688,6,10,1416095889,0.2753601,1.077377,-0.3034515,42.84079,23.23362,-28.89255,227.1103,230.1926,15,0.1935261,0.5265293,0.651675,0.7228007,0.6731004,-1.221451,0.2486989,0.6954817,0.6572422,0.2566024,0.2338649,0.1796309,172.17.160.76,10.64.29.0,2,unknown,1,2014-11-15 17:58:07.002,8,2014-11-15 17:52:35.410,3
2014-11-15 17:58:09.817,11981,399.3667,40.10479,-88.22195,234.9156,0,307.9688,6,10,1416095889,0.2484283,0.9831696,0.02935791,43.28703,22.85504,-27.85056,227.3539,230.4362,15,0.3000757,0.4212226,0.6432911,0.7609266,0.7284555,-1.193888,0.3762864,0.3843387,0.6901547,0.1151375,0.08954105,0.2861585,172.17.160.76,10.64.29.0,2,unknown,1,2014-11-15 17:58:07.002,8,2014-11-15 17:52:35.410,3
2014-11-15 17:58:09.851,11982,399.4,40.10479,-88.22195,234.9156,0,307.9688,6,10,1416095889,0.1673126,0.8989105,-0.3594513,44.79737,22.37322,-25.96817,227.6638,230.7461,15,-0.216834,0.3828278,0.5919504,0.785691,0.7653522,-1.174442,0.09812096,0.4577408,0.6841524,-0.176271,0.05248583,0.05565348,172.17.160.76,10.64.29.0,2,unknown,1,2014-11-15 17:58:07.002,8,2014-11-15 17:52:35.410,3
2014-11-15 17:58:09.885,11983,399.4333,40.10479,-88.22195,234.9156,0,307.9688,6,10,1416095889,0.01092529,0.682724,-0.6538849,45.07198,22.57971,-25.43039,227.5361,230.6184,15,-0.7889457,0.3523943,0.4654931,0.8153469,0.802078,-1.169195,-0.4269748,0.5047257,0.540943,-0.113662,-0.0215257,-0.08769695,172.17.160.76,10.64.29.0,2,unknown,1,2014-11-15 17:58:07.002,8,2014-11-15 17:52:35.410,3
2014-11-15 17:58:09.918,11984,399.4667,40.10479,-88.22195,234.9156,0,307.9688,6,10,1416095889,0.6837006,1.187988,-0.2182465,46.17041,22.64854,-24.08591,227.2226,230.3049,15,-0.08941617,0.6970302,0.8404531,0.948793,0.9403774,-1.182074,-1.020054,0.4388204,0.6415344,-0.1861891,-0.2254125,-0.6734024,172.17.160.76,10.64.29.0,2,unknown,1,2014-11-15 17:58:07.002,8,2014-11-15 17:52:35.410,3
2014-11-15 17:58:09.951,11985,399.5,40.10479,-88.22195,234.9156,0,307.9688,6,10,1416095889,0.3882141,1.220093,-0.1741333,46.92559,22.51088,-22.6741,227.3029,230.3852,15,0.3761848,0.5351148,0.5332117,0.9902363,0.9913012,-1.173576,-0.02369342,0.7640453,0.8560584,0.3600027,0.2658483,-0.006403325,172.17.160.76,10.64.29.0,2,unknown,1,2014-11-15 17:58:07.002,8,2014-11-15 17:52:35.410,3
2014-11-15 17:58:09.984,11986,399.5334,40.10479,-88.22195,234.9156,0,307.9688,6,10,1416095889,0.2406006,0.7747498,-0.2389221,47.4748,22.23554,-21.53128,227.6302,230.7125,15,0.1166608,0.007315171,0.5558183,0.9932343,1.014878,-1.143273,0.4218295,0.0167016,0.6944166,-0.08483438,0.2005545,-0.001349973,172.17.160.76,10.64.29.0,2,unknown,1,2014-11-15 17:58:07.002,8,2014-11-15 17:52:35.410,3
2014-11-15 17:58:10.018,11987,399.5667,40.10479,-88.22195,234.9156,0,307.9688,6,10,1416095889,0.5298004,1.12471,0.233017,48.36727,21.89139,-19.91788,228.0603,231.1426,15,-0.00979271,0.149544,0.1037879,1.001567,1.02438,-1.124578,0.08999947,0.1586328,0.4724338,-0.1281187,-0.1273357,-0.01467239,172.17.160.76,10.64.29.0,2,unknown,1,2014-11-15 17:58:07.002,8,2014-11-15 17:52:35.410,3
2014-11-15 17:58:10.051,11988,399.6,40.10479,-88.22195,234.9156,0,307.9688,6,10,1416095889,0.1949463,0.8265381,-0.6588593,48.88216,21.51282,-18.3381,229.4266,232.5089,15,-0.07753021,0.1419641,-0.06052806,1.002701,1.030114,-1.12005,-0.004404048,-0.02509399,-0.0854584,0.03226436,0.1601196,0.1629983,172.17.160.76,10.64.29.0,2,unknown,1,2014-11-15 17:58:07.002,8,2014-11-15 17:52:35.410,3
2014-11-15 17:58:10.085,11989,399.6334,40.10479,-88.22195,234.9156,0,307.9688,6,10,1416095889,0.4899139,0.8422546,-0.3278961,48.6762,21.03099,-17.06082,232.4481,235.5304,15,-0.06249188,0.897538,0.0941249,1.012437,1.060302,-1.121536,-0.1939681,0.9337143,0.09438342,-0.09776859,-0.2062803,-0.3068559,172.17.160.76,10.64.29.0,2,unknown,1,2014-11-15 17:58:07.002,8,2014-11-15 17:52:35.410,3
2014-11-15 17:58:10.117,11990,399.6667,40.10479,-88.22195,234.6588,0.21,324.4922,6,10,1416095890,0.4433441,1.035248,-0.168335,48.71053,21.61607,-16.22049,233.2031,236.2854,15,0.2721761,-0.1915239,-0.1591271,1.006603,1.077856,-1.117873,0.313393,0.2374246,-0.05660619,0.1556399,0.1697979,0.01513796,172.17.160.76,10.64.29.0,2,unknown,1,2014-11-15 17:58:07.002,8,2014-11-15 17:52:35.410,3
2014-11-15 17:58:10.151,11991,399.7,40.10479,-88.22195,234.6588,0.21,324.4922,6,10,1416095890,0.3514404,0.7732391,-0.3037262,48.5389,22.20115,-14.90958,234.4248,237.5071,15,0.08575405,-0.08318916,-0.1769652,0.9906827,1.061258,-1.117734,0.2559939,-0.1643221,-0.2145448,0.03191458,0.08599669,0.04288543,172.17.160.76,10.64.29.0,2,unknown,1,2014-11-15 17:58:07.002,8,2014-11-15 17:52:35.410,3
2014-11-15 17:58:10.184,11992,399.7334,40.10479,-88.22195,234.6588,0.21,324.4922,6,10,1416095890,0.4525299,0.9800873,-0.1286316,48.57323,22.57972,-14.47263,236.9316,240.0139,15,0.3954246,0.1549108,-0.2872651,0.9646726,1.044245,-1.119168,0.3501601,0.6161631,-0.1332993,0.1900839,-0.07547331,0.074784,172.17.160.76,10.64.29.0,2,unknown,1,2014-11-15 17:58:07.002,8,2014-11-15 17:52:35.410,3
2014-11-15 17:58:10.218,11993,399.7667,40.10479,-88.22195,234.6588,0.21,324.4922,6,10,1416095890,0.2591705,0.8485718,-0.4960022,48.05834,22.20115,-13.43057,238.5342,241.6165,15,0.243484,-0.2316641,-0.5530408,0.9135166,1.003725,-1.121667,0.4457814,-0.2278379,-0.5945392,-0.003368101,0.0918197,0.2263907,172.17.160.76,10.64.29.0,2,unknown,1,2014-11-15 17:58:07.002,8,2014-11-15 17:52:35.410,3
2014-11-15 17:58:10.251,11994,399.8,40.10479,-88.22195,234.6588,0.21,324.4922,6,10,1416095890,0.3853607,0.8387451,-0.2191925,46.92558,22.16671,-13.06076,239.6183,242.7006,15,0.3037532,0.4833568,-0.5601161,0.8729199,0.9640617,-1.130222,0.2133489,0.2130976,-0.4713995,-0.1542361,-0.1914332,-0.2844567,172.17.160.76,10.64.29.0,2,unknown,1,2014-11-15 17:58:07.002,8,2014-11-15 17:52:35.410,3
2014-11-15 17:58:10.285,11995,399.8333,40.10479,-88.22195,234.6588,0.21,324.4922,6,10,1416095890,0.3406372,0.9056549,-0.2319183,46.30772,21.96022,-12.38858,240.2801,243.3624,15,0.4021746,-0.175473,-0.8420622,0.830706,0.9391174,-1.137806,0.3961263,0.2735504,-0.6161273,0.08154397,-0.01673935,0.02430115,172.17.160.76,10.64.29.0,2,unknown,1,2014-11-15 17:58:07.002,8,2014-11-15 17:52:35.410,3
2014-11-15 17:58:10.318,11996,399.8667,40.10479,-88.22195,234.6588,0.21,324.4922,6,10,1416095890,0.2430725,0.797348,-0.3492889,45.24361,22.68296,-11.95163,244.2099,247.2922,15,0.402014,0.1858274,-0.696859,0.7697731,0.882805,-1.148049,0.4892385,-0.09256646,-0.8307003,0.02212449,0.01543342,0.02308759,172.17.160.76,10.64.29.0,2,unknown,1,2014-11-15 17:58:07.002,8,2014-11-15 17:52:35.410,3
2014-11-15 17:58:10.351,11997,399.9,40.10479,-88.22195,234.6588,0.21,324.4922,6,10,1416095890,0.2708435,0.9547272,-0.1794739,44.28248,22.88947,-11.41379,248.1592,251.2415,15,0.3822094,0.2485869,-0.830201,0.6876732,0.819699,-1.15638,0.4925712,0.5596927,-0.7094537,0.06765148,-0.09152938,0.1342403,172.17.160.76,10.64.29.0,2,unknown,1,2014-11-15 17:58:07.002,8,2014-11-15 17:52:35.410,3
2014-11-15 17:58:10.384,11998,399.9333,40.10479,-88.22195,234.6588,0.21,324.4922,6,10,1416095890,0.2402191,0.8803101,-0.3935699,43.21838,23.81871,-11.64908,250.0068,253.0891,15,0.1270136,-0.2453075,-0.82017,0.6001949,0.7405071,-1.169608,0.2696004,-0.2574008,-0.8625906,0.05021076,0.05695676,0.07796638,172.17.160.76,10.64.29.0,2,unknown,1,2014-11-15 17:58:07.002,8,2014-11-15 17:52:35.410,3
2014-11-15 17:58:10.418,11999,399.9667,40.10479,-88.22195,234.6588,0.21,324.4922,6,10,1416095890,0.2391205,0.92659,-0.3166962,42.49753,24.19728,-11.41379,251.4599,254.5422,15,0.1048588,0.2087061,-0.7816058,0.5475202,0.6907221,-1.18162,0.1075767,0.2398014,-0.7415413,-0.02841235,-0.1640983,-0.01166635,172.17.160.76,10.64.29.0,2,unknown,1,2014-11-15 17:58:07.002,8,2014-11-15 17:52:35.410,3
2014-11-15 17:58:10.451,12000,400,40.10479,-88.22195,234.6588,0.21,324.4922,6,10,1416095890,0.1881409,1.035797,-0.3121948,41.2618,24.8856,-10.60703,254.1352,257.2175,15,0.05448774,-0.4559779,-0.8624056,0.4908653,0.6420934,-1.192659,0.0968534,-0.1326474,-0.8156433,0.03439544,-0.04175037,0.05735138,172.17.160.76,10.64.29.0,2,unknown,1,2014-11-15 17:58:07.002,8,2014-11-15 17:52:35.410,3
2014-11-15 17:58:10.484,12001,400.0334,40.10479,-88.22195,234.6588,0.21,324.4922,6,10,1416095890,0.09602356,0.7897949,-0.40625,40.71259,25.09209,-10.53989,255.113,258.1953,15,-0.009085374,0.1190252,-0.8453403,0.4279579,0.5717879,-1.205058,0.05318047,-0.3275814,-0.8802,-0.05096858,0.05632866,-0.0666806,172.17.160.76,10.64.29.0,2,unknown,1,2014-11-15 17:58:07.002,8,2014-11-15 17:52:35.410,3
2014-11-15 17:58:10.517,12002,400.0667,40.10479,-88.22195,234.6588,0.21,324.4922,6,10,1416095890,0.270874,0.944458,-0.2460632,39.20224,25.57391,-9.934784,256.7635,259.8458,15,-0.05311994,-0.1399001,-0.8030182,0.3642268,0.5147643,-1.216726,0.05883876,0.2922556,-0.8313136,-0.06155374,-0.1615562,-0.09146263,172.17.160.76,10.64.29.0,2,unknown,1,2014-11-15 17:58:07.002,8,2014-11-15 17:52:35.410,3
2014-11-15 17:58:10.551,12003,400.1,40.10479,-88.22195,234.6588,0.21,324.4922,6,10,1416095890,-0.06925964,1.020264,-0.2923279,38.06948,26.43433,-9.699493,259.6051,262.6874,15,-0.2978093,-0.8857242,-0.8060294,0.2846103,0.4346059,-1.232649,-0.2064746,-0.564421,-0.7403595,0.1568441,-0.001796898,0.161114,172.17.160.76,10.64.29.0,2,unknown,1,2014-11-15 17:58:07.002,8,2014-11-15 17:52:35.410,3
2014-11-15 17:58:10.584,12004,400.1334,40.10479,-88.22195,234.6588,0.21,324.4922,6,10,1416095890,0.1045074,0.8539734,-0.2640839,37.52027,26.91616,-9.565033,260.0718,263.1541,15,-0.3623326,-0.5398989,-0.8857008,0.2458773,0.3818433,-1.242437,-0.2321044,-0.8187377,-0.790431,-0.1894299,0.07369103,0.006936803,172.17.160.76,10.64.29.0,2,unknown,1,2014-11-15 17:58:07.002,8,2014-11-15 17:52:35.410,3
2014-11-15 17:58:10.618,12005,400.1667,40.10479,-88.22195,234.6588,0.21,324.4922,6,10,1416095890,0.09873962,0.8657837,-0.2746277,36.14723,27.6733,-9.094452,262.3459,265.4282,15,-0.3043168,-0.6161,-0.70056,0.1572658,0.2776482,-1.264286,-0.2840408,-0.3968194,-0.7827075,0.0218039,-0.09941892,0.02609408,172.17.160.76,10.64.29.0,2,unknown,1,2014-11-15 17:58:07.002,8,2014-11-15 17:52:35.410,3
2014-11-15 17:58:10.651,12006,400.2,40.10479,-88.22195,234.6588,0.21,324.4922,6,10,1416095890,0.05000305,0.8757782,-0.3380585,34.49959,28.56812,-8.892853,263.9417,267.024,15,-0.3015748,-1.103612,-0.673416,0.06915095,0.1677212,-1.280471,-0.2537519,-0.9446024,-0.7145863,0.00601471,-0.1307887,-0.04766309,172.17.160.76,10.64.29.0,2,unknown,1,2014-11-15 17:58:07.002,8,2014-11-15 17:52:35.410,3
2014-11-15 17:58:10.684,12007,400.2334,40.10479,-88.22195,234.6588,0.21,324.4922,6,10,1416095890,0.003158569,0.7875366,-0.2859192,33.36683,28.94669,-8.38858,265.1231,268.2054,15,-0.2664354,-0.2891096,-0.4527161,0.004261749,0.08004621,-1.289208,-0.1887912,-0.5122365,-0.5819906,-0.05739111,-0.1287215,-0.06897097,172.17.160.76,10.64.29.0,2,unknown,1,2014-11-15 17:58:07.002,8,2014-11-15 17:52:35.410,3
2014-11-15 17:58:10.718,12008,400.2667,40.10479,-88.22195,234.6588,0.21,324.4922,6,10,1416095890,-0.1992493,0.966507,-0.2668915,32.16542,30.01358,-8.220612,266.6286,269.7109,15,-0.08766993,-0.7578542,-0.4622228,-0.03323444,0.03921152,-1.295379,-0.1691739,-0.09120131,-0.2635253,0.1075185,-0.1226968,0.03022383,172.17.160.76,10.64.29.0,2,unknown,1,2014-11-15 17:58:07.002,8,2014-11-15 17:52:35.410,3
2014-11-15 17:58:10.751,12009,400.3,40.10479,-88.22195,234.6588,0.21,324.4922,6,10,1416095890,0.01864624,0.8070984,-0.2437134,30.99833,30.56424,-7.750031,268.0547,271.137,15,-0.0827074,-0.3401501,-0.5874196,-0.1008158,-0.0498041,-1.296711,0.02755405,-0.6580338,-0.5984294,-0.133971,-0.01227955,0.01756888,172.17.160.76,10.64.29.0,2,unknown,1,2014-11-15 17:58:07.002,8,2014-11-15 17:52:35.410,3
2014-11-15 17:58:10.784,12010,400.3333,40.10479,-88.22195,234.6588,0.21,324.4922,6,10,1416095890,0.2095184,0.866333,-0.08615112,30.62075,30.46099,-7.716339,270.7262,273.8085,15,-0.2310657,0.2996573,-0.01241752,-0.151202,-0.09879868,-1.297999,-0.1518997,0.3308897,-0.2284616,0.1719919,-0.2032707,0.0732116,172.17.160.76,10.64.29.0,2,unknown,1,2014-11-15 17:58:07.002,8,2014-11-15 17:52:35.410,3
2014-11-15 17:58:10.818,12011,400.3667,40.10479,-88.22195,234.6588,0.21,324.4922,6,10,1416095890,-0.2069092,0.9287262,-0.2610321,29.83125,30.56424,-7.413849,271.8634,274.9457,15,-0.2511963,-0.5097392,-0.2596838,-0.1495899,-0.09046077,-1.304714,-0.1315568,-0.2117512,-0.04245161,-0.105289,0.02495289,0.06447555,172.17.160.76,10.64.29.0,2,unknown,1,2014-11-15 17:58:07.002,8,2014-11-15 17:52:35.410,3
2014-11-15 17:58:10.851,12012,400.4,40.10479,-88.22195,234.6588,0.21,324.4922,6,10,1416095890,0.2011108,0.7866669,-0.18013,30.03721,30.15126,-6.539825,271.5295,274.6118,15,-0.3275811,0.1808297,0.1465404,-0.1729628,-0.1239728,-1.309565,-0.2389276,-0.2273572,-0.1461571,-0.05183426,-0.1402824,-0.05345029,172.17.160.76,10.64.29.0,2,unknown,1,2014-11-15 17:58:07.002,8,2014-11-15 17:52:35.410,3
2014-11-15 17:58:10.884,12013,400.4333,40.10479,-88.22195,234.6588,0.21,324.4922,6,10,1416095890,-0.1903839,0.983078,-0.2377319,30.07153,30.18567,-6.304657,271.8457,274.928,15,-0.1582919,-0.2669137,0.1032124,-0.1625621,-0.1082495,-1.317622,-0.2131976,0.3104251,0.296032,0.2070997,-0.06310819,0.06419766,172.17.160.76,10.64.29.0,2,unknown,1,2014-11-15 17:58:07.002,8,2014-11-15 17:52:35.410,3
2014-11-15 17:58:10.918,12014,400.4667,40.10479,-88.22195,234.6588,0.21,324.4922,6,10,1416095890,0.0320282,0.809967,-0.214447,30.48344,29.8415,-5.968536,270.6126,273.6949,15,-0.2685289,0.04774356,-0.02634159,-0.1468143,-0.1006309,-1.322639,-0.1327489,-0.4030683,-0.04982383,-0.1967604,-0.02136848,-0.06229506,172.17.160.76,10.64.29.0,2,unknown,1,2014-11-15 17:58:07.002,8,2014-11-15 17:52:35.410,3
2014-11-15 17:58:10.951,12015,400.5,40.10479,-88.22195,234.6588,0.21,324.4922,6,10,1416095890,0.08630371,0.9286346,-0.1979218,29.86558,30.04799,-6.439056,270.4704,273.5527,15,-0.234975,0.6655293,0.3164602,-0.1397585,-0.08173326,-1.329089,-0.204158,0.7914028,0.2486411,0.1863511,-0.2107378,-0.0579011,172.17.160.76,10.64.29.0,2,unknown,1,2014-11-15 17:58:07.002,8,2014-11-15 17:52:35.410,3
2014-11-15 17:58:10.984,12016,400.5334,40.10479,-88.22195,234.6588,0.21,324.4922,6,10,1416095890,-0.05549622,0.9980927,-0.1967621,30.03721,29.94474,-6.674347,269.8747,272.957,15,-0.1265004,-0.3670614,-0.2126942,-0.120143,-0.05752333,-1.332552,0.02822814,-0.6256568,-0.1078575,-0.2941714,0.06248686,0.01577298,172.17.160.76,10.64.29.0,2,unknown,1,2014-11-15 17:58:07.002,8,2014-11-15 17:52:35.410,3
2014-11-15 17:58:11.018,12017,400.5667,40.10479,-88.22195,234.6588,0.21,324.4922,6,10,1416095890,0.3796692,0.8302765,0.06930542,29.72828,30.46099,-6.909698,268.5343,271.6166,15,-0.2856874,0.7389303,0.1832899,-0.1368655,-0.07166861,-1.334529,0.1086723,0.5877856,0.03834673,0.2975995,-0.05316639,0.5431666,172.17.160.76,10.64.29.0,2,unknown,1,2014-11-15 17:58:07.002,8,2014-11-15 17:52:35.410,3
2014-11-15 17:58:11.051,12018,400.6,40.10479,-88.22195,234.6588,0.21,324.4922,6,10,1416095890,-0.1391144,0.9558716,-0.2248993,30.65508,30.49542,-7.27951,268.0356,271.118,15,-0.2868643,0.2766428,0.4557838,-0.1168322,-0.03774021,-1.3372,-0.1609187,0.6456355,0.3665972,0.3884031,-0.1425638,0.3006181,172.17.160.76,10.64.29.0,2,unknown,1,2014-11-15 17:58:07.002,8,2014-11-15 17:52:35.410,3
2014-11-15 17:58:11.085,12019,400.6334,40.10479,-88.22195,234.6588,0.21,324.4922,6,10,1416095890,0.1145935,0.8924408,-0.3045502,30.62075,30.73634,-6.976959,266.2644,269.3467,15,-0.07831904,-0.07697122,-0.2081625,-0.08260459,0.0005498949,-1.34125,0.0266206,-0.07550899,-0.1421066,-0.2140533,0.04559376,0.06736459,172.17.160.76,10.64.29.0,2,unknown,1,2014-11-15 17:58:07.002,8,2014-11-15 17:52:35.410,3
2014-11-15 17:58:11.118,12020,400.6667,40.10478,-88.22195,234.937,0.17,8.085938,6,10,1416095891,0.07035828,0.9380493,-0.287262,30.96401,30.46101,-6.842499,266.4125,269.4948,15,-0.04309021,0.6180723,-0.04753503,-0.1084285,-0.01713283,-1.34303,-0.01919109,0.3556019,-0.04200859,0.08664737,-0.03482686,-0.09706115,172.17.160.76,10.64.29.0,2,unknown,1,2014-11-15 17:58:07.002,8,2014-11-15 17:52:35.410,3
2014-11-15 17:58:11.151,12021,400.7,40.10478,-88.22195,234.937,0.17,8.085938,6,10,1416095891,0.08630371,0.954483,-0.2138519,30.75805,30.46101,-6.640778,267.0643,270.1466,10,-0.2309291,0.123657,-0.1025093,-0.111887,-0.001792203,-1.342573,-0.05297314,0.7295263,-0.05689682,-0.0101536,-0.05628418,-0.07006318,172.17.160.76,10.64.29.0,2,unknown,1,2014-11-15 17:58:07.002,8,2014-11-15 17:52:35.410,3
2014-11-15 17:58:11.184,12022,400.7334,40.10478,-88.22195,234.937,0.17,8.085938,6,10,1416095891,0.002029419,0.9517822,-0.3863831,30.65508,30.49544,-6.943268,266.7025,269.7848,10,-0.313143,-0.03673884,-0.1009232,-0.1243547,-0.005798474,-1.347173,-0.1535526,-0.1147925,-0.1490694,0.1708415,0.120435,0.04477386,172.17.160.76,10.64.29.0,2,unknown,1,2014-11-15 17:58:07.002,8,2014-11-15 17:52:35.410,3
2014-11-15 17:58:11.218,12023,400.7667,40.10478,-88.22195,234.937,0.17,8.085938,6,10,1416095891,0.06777954,1.001358,-0.1813202,30.99833,30.77077,-7.212189,266.3041,269.3864,10,-0.3568116,0.2591416,-0.03869706,-0.1364865,-0.01951592,-1.351106,-0.2474464,0.03023927,-0.08532675,0.03156602,0.05639891,-0.04572493,172.17.160.76,10.64.29.0,2,unknown,1,2014-11-15 17:58:07.002,8,2014-11-15 17:52:35.410,3
2014-11-15 17:58:11.251,12024,400.8,40.10478,-88.22195,234.937,0.17,8.085938,6,10,1416095891,0.001235962,1.075668,-0.4427948,30.75805,30.94285,-7.044098,266.0255,269.1078,10,-0.3406809,-0.5641508,-0.2946641,-0.1665742,-0.04740433,-1.36936,-0.2890948,-0.6391956,-0.2319963,-0.06908656,0.1271228,-0.2352068,172.17.160.76,10.64.29.0,2,unknown,1,2014-11-15 17:58:07.002,8,2014-11-15 17:52:35.410,3
2014-11-15 17:58:11.284,12025,400.8333,40.10478,-88.22195,234.937,0.17,8.085938,6,10,1416095891,0.04983521,0.8276215,-0.2292938,30.65508,30.8396,-7.144928,265.6688,268.7511,10,-0.3414314,0.0983058,-0.2306684,-0.1971756,-0.08506852,-1.3745,-0.2788821,-0.1105765,-0.3024932,0.0227972,-0.05263401,-0.1954528,172.17.160.76,10.64.29.0,2,unknown,1,2014-11-15 17:58:07.002,8,2014-11-15 17:52:35.410,3
2014-11-15 17:58:11.318,12026,400.8667,40.10478,-88.22195,234.937,0.17,8.085938,6,10,1416095891,-0.08966064,1.148758,-0.114151,30.00288,30.80518,-6.842438,265.9294,269.0117,10,-0.4184548,-0.4822596,-0.2896957,-0.2376961,-0.1183377,-1.385785,-0.3496422,-0.01585853,-0.1456917,0.05173245,-0.01851756,0.09209546,172.17.160.76,10.64.29.0,2,unknown,1,2014-11-15 17:58:07.002,8,2014-11-15 17:52:35.410,3
2014-11-15 17:58:11.351,12027,400.9,40.10478,-88.22195,234.937,0.17,8.085938,6,10,1416095891,-0.07015991,0.8231506,-0.3122101,29.07608,30.90844,-6.674347,265.8637,268.946,10,-0.2857556,-0.4974338,-0.4622326,-0.3063026,-0.2050709,-1.39269,-0.1968744,-0.8748046,-0.4713546,-0.1691227,0.1462664,-0.05915097,172.17.160.76,10.64.29.0,2,unknown,1,2014-11-15 17:58:07.002,8,2014-11-15 17:52:35.410,3
2014-11-15 17:58:11.384,12028,400.9333,40.10478,-88.22195,234.937,0.17,8.085938,6,10,1416095891,-0.2745209,0.7354431,-0.4523621,28.93878,30.90844,-6.472626,266.285,269.3673,10,-0.1650787,0.6442911,-0.2422529,-0.3789624,-0.276617,-1.397397,-0.2913341,0.5826921,-0.2393531,0.01654019,-0.2468296,-0.09306065,172.17.160.76,10.64.29.0,2,unknown,1,2014-11-15 17:58:07.002,8,2014-11-15 17:52:35.410,3
2014-11-15 17:58:11.418,12029,400.9667,40.10478,-88.22195,234.937,0.17,8.085938,6,10,1416095891,0.2726593,1.132141,0.06994629,27.56574,30.90844,-6.136505,265.3652,268.4475,10,0.2894893,0.08515191,-0.5271307,-0.4490996,-0.3350616,-1.396613,-0.1736759,-0.237552,-0.2250065,-0.3302809,-0.06842546,-0.2932576,172.17.160.76,10.64.29.0,2,unknown,1,2014-11-15 17:58:07.002,8,2014-11-15 17:52:35.410,3
2014-11-15 17:58:11.451,12030,401,40.10478,-88.22195,234.937,0.17,8.085938,6,10,1416095891,0.02081299,0.6812744,-0.1006927,27.56574,31.04612,-5.934723,266.342,269.4243,10,-0.3424972,0.7163083,0.2799784,-0.4973403,-0.3821074,-1.386479,0.2044603,0.2490343,-0.351238,0.3093212,0.1885998,0.6959671,172.17.160.76,10.64.29.0,2,unknown,1,2014-11-15 17:58:07.002,8,2014-11-15 17:52:35.410,3
2014-11-15 17:58:11.484,12031,401.0334,40.10478,-88.22195,234.937,0.17,8.085938,6,10,1416095891,-0.03045654,1.237259,0.02513123,27.42844,31.25262,-5.733124,266.7204,269.8027,10,0.03922783,-0.1559744,0.03193769,-0.4772096,-0.3436601,-1.393146,-0.2227216,0.6615009,0.3562923,0.1630123,-0.2464381,-0.07604704,172.17.160.76,10.64.29.0,2,unknown,1,2014-11-15 17:58:07.002,8,2014-11-15 17:52:35.410,3
2014-11-15 17:58:11.518,12032,401.0667,40.10478,-88.22195,234.937,0.17,8.085938,6,10,1416095891,-0.0697937,0.8122253,-0.2323151,27.84035,31.39027,-5.531403,267.3027,270.385,10,-0.1682894,0.02313381,-0.04276877,-0.45597,-0.3195434,-1.392693,-0.01019115,-0.06242878,0.04385439,-0.2243458,-0.05867482,-0.1369651,172.17.160.76,10.64.29.0,2,unknown,1,2014-11-15 17:58:07.002,8,2014-11-15 17:52:35.410,3
2014-11-15 17:58:11.551,12033,401.1,40.10478,-88.22195,234.937,0.17,8.085938,6,10,1416095891,-0.09159851,1.021286,-0.3100128,27.56574,31.32145,-5.195221,267.8581,270.9404,10,-0.07112105,0.2781975,-0.03011316,-0.4614474,-0.3226971,-1.394567,0.06368081,0.1166663,-0.01492221,0.08204146,-0.07850592,0.1135653,172.17.160.76,10.64.29.0,2,unknown,1,2014-11-15 17:58:07.002,8,2014-11-15 17:52:35.410,3
2014-11-15 17:58:11.584,12034,401.1334,40.10478,-88.22195,234.937,0.17,8.085938,6,10,1416095891,-0.1458435,0.9810944,-0.09768677,27.46277,31.35587,-4.825531,268.4554,271.5377,10,-0.01649855,0.1040076,-0.1586128,-0.4671559,-0.314815,-1.395723,-0.01279838,0.2011768,-0.08531024,-0.004630087,0.1304442,0.05468814,172.17.160.76,10.64.29.0,2,unknown,1,2014-11-15 17:58:07.002,8,2014-11-15 17:52:35.410,3
2014-11-15 17:58:11.618,12035,401.1667,40.10478,-88.22195,234.937,0.17,8.085938,6,10,1416095891,0.04174805,1.043747,-0.2363892,27.25681,31.76887,-4.691132,269.3395,272.4218,10,-0.2575679,0.1406719,-0.10232,-0.4820766,-0.3261015,-1.394676,-0.05422651,0.1646294,-0.1437291,-0.08971418,-0.003436518,0.06829049,172.17.160.76,10.64.29.0,2,unknown,1,2014-11-15 17:58:07.002,8,2014-11-15 17:52:35.410,3
2014-11-15 17:58:11.651,12036,401.2,40.10478,-88.22195,234.937,0.17,8.085938,6,10,1416095891,-0.2216339,1.019501,-0.2937775,28.01198,31.56238,-4.892792,269.7322,272.8145,10,-0.2352692,0.1589806,-0.06833965,-0.5104343,-0.341906,-1.401897,-0.1716865,0.3642488,-0.02865965,0.07273303,0.05904472,0.01163923,172.17.160.76,10.64.29.0,2,unknown,1,2014-11-15 17:58:07.002,8,2014-11-15 17:52:35.410,3
2014-11-15 17:58:11.684,12037,401.2334,40.10478,-88.22195,234.937,0.17,8.085938,6,10,1416095891,-0.05986023,1.018097,-0.1594543,27.97765,31.32146,-5.262543,269.227,272.3093,10,-0.2837481,0.09053522,-0.2712616,-0.5639789,-0.3911129,-1.408603,-0.2821102,-0.07117109,-0.2874178,-0.1140533,0.04959299,-0.09444007,172.17.160.76,10.64.29.0,2,unknown,1,2014-11-15 17:58:07.002,8,2014-11-15 17:52:35.410,3
2014-11-15 17:58:11.718,12038,401.2667,40.10478,-88.22195,234.937,0.17,8.085938,6,10,1416095891,-0.07814026,1.010193,-0.1534729,27.87467,31.01172,-5.699493,268.2926,271.3749,10,-0.3543608,0.3041213,-0.1329413,-0.6262129,-0.4490422,-1.411767,-0.2607174,0.3778987,-0.1970302,0.05377547,-0.03288322,-0.08469563,172.17.160.76,10.64.29.0,2,unknown,1,2014-11-15 17:58:07.002,8,2014-11-15 17:52:35.410,3
2014-11-15 17:58:11.751,12039,401.3,40.10478,-88.22195,234.937,0.17,8.085938,6,10,1416095891,-0.2835083,0.958374,-0.141922,26.9822,31.42471,-5.632233,268.5481,271.6304,10,-0.2658999,-0.04505536,-0.2147224,-0.6575963,-0.4712274,-1.415945,-0.2886806,0.3710733,-0.1173504,0.05869687,-0.05537149,-0.065625,172.17.160.76,10.64.29.0,2,unknown,1,2014-11-15 17:58:07.002,8,2014-11-15 17:52:35.410,3
2014-11-15 17:58:11.784,12040,401.3333,40.10478,-88.22195,234.937,0.17,8.085938,6,10,1416095891,0.1537933,0.9177399,-0.02761841,26.9822,31.56238,-5.833954,268.2644,271.3467,10,-0.3498105,0.6036209,-0.1515493,-0.747822,-0.5664607,-1.416281,-0.2031803,-0.1256121,-0.3155989,-0.2009172,-0.02971216,-0.012059,172.17.160.76,10.64.29.0,2,unknown,1,2014-11-15 17:58:07.002,8,2014-11-15 17:52:35.410,3
2014-11-15 17:58:11.818,12041,401.3667,40.10478,-88.22195,234.937,0.17,8.085938,6,10,1416095891,-0.4992371,1.172806,0.07289124,26.60461,31.45912,-5.464142,269.5734,272.6557,10,0.1325298,-0.5726004,-0.2582672,-0.8066409,-0.603661,-1.420279,0.06512349,0.4563828,-0.05453734,0.1312171,0.1350399,0.5829967,172.17.160.76,10.64.29.0,2,unknown,1,2014-11-15 17:58:07.002,8,2014-11-15 17:52:35.410,3
2014-11-15 17:58:11.851,12042,401.4,40.10478,-88.22195,234.937,0.17,8.085938,6,10,1416095891,0.2306976,1.073105,0.3722382,26.67327,31.45912,-5.464142,269.0365,272.1188,10,0.09979424,0.1494976,-0.1779154,-0.8252457,-0.6346718,-1.41133,-0.02566899,-0.2042468,-0.1638245,0.02040397,0.06269094,0.010087,172.17.160.76,10.64.29.0,2,unknown,1,2014-11-15 17:58:07.002,8,2014-11-15 17:52:35.410,3
2014-11-15 17:58:11.884,12043,401.4333,40.10478,-88.22195,234.937,0.17,8.085938,6,10,1416095891,0.04475403,0.7291107,-0.3225555,26.1927,31.32146,-5.464142,269.4343,272.5166,10,0.08391141,0.395693,0.2023896,-0.8201489,-0.6236255,-1.406189,0.3689372,0.5403675,-0.02975734,0.3263917,0.08662203,0.505258,172.17.160.76,10.64.29.0,2,unknown,1,2014-11-15 17:58:07.002,8,2014-11-15 17:52:35.410,3
2014-11-15 17:58:11.918,12044,401.4667,40.10478,-88.22195,234.937,0.17,8.085938,6,10,1416095891,-0.2988586,0.8360291,-0.2816925,26.36433,31.49355,-5.632233,269.7643,272.8466,10,0.3200526,-0.6730346,0.1035285,-0.7623121,-0.5569403,-1.412313,-0.1853925,0.1168808,0.5634566,0.122943,-0.2845106,-0.4861469,172.17.160.76,10.64.29.0,2,unknown,1,2014-11-15 17:58:07.002,8,2014-11-15 17:52:35.410,3
2014-11-15 17:58:11.951,12045,401.5,40.10478,-88.22195,234.937,0.17,8.085938,6,10,1416095891,-0.05809021,0.9009705,-0.3937073,26.81057,31.3903,-6.674286,267.5173,270.5996,10,0.07132558,0.00234518,0.03371269,-0.6951366,-0.5089981,-1.407067,0.2090982,-0.4205291,0.05600689,-0.219429,-0.1505972,-0.1393567,172.17.160.76,10.64.29.0,2,unknown,1,2014-11-15 17:58:07.002,8,2014-11-15 17:52:35.410,3
2014-11-15 17:58:11.984,12046,401.5334,40.10478,-88.22195,234.937,0.17,8.085938,6,10,1416095891,-0.2336731,0.927597,-0.2709808,26.77624,31.49355,-6.438995,267.8979,270.9802,10,0.05570161,-0.1183285,0.2348173,-0.6434434,-0.4485942,-1.405089,0.3136821,0.4159171,0.2319799,0.2920435,0.08813047,0.2951292,172.17.160.76,10.64.29.0,2,unknown,1,2014-11-15 17:58:07.002,8,2014-11-15 17:52:35.410,3
2014-11-15 17:58:12.018,12047,401.5667,40.10478,-88.22195,234.937,0.17,8.085938,6,10,1416095891,-0.06184387,1.088531,-0.04325867,27.01653,30.90848,-7.077545,266.8156,269.8979,10,0.0580151,-0.243341,0.1428629,-0.6080247,-0.4103693,-1.40253,0.1213782,-0.05138009,0.2504073,-0.09163418,-0.004904344,0.0367777,172.17.160.76,10.64.29.0,2,unknown,1,2014-11-15 17:58:11.950,8,2014-11-15 17:52:35.410,3
2014-11-15 17:58:12.052,12048,401.6,40.10478,-88.22195,234.937,0.17,8.085938,6,10,1416095891,-0.03314209,0.7800446,-0.4702148,26.60461,30.56431,-6.539764,267.509,270.5913,10,-0.06134645,0.3219267,0.2747258,-0.5575454,-0.3648622,-1.400042,0.1974788,0.08595272,0.1489432,-0.001210892,0.1030746,0.1154813,172.17.160.76,10.64.29.0,2,unknown,1,2014-11-15 17:58:11.950,8,2014-11-15 17:52:35.410,3
2014-11-15 17:58:12.084,12049,401.6334,40.10478,-88.22195,234.937,0.17,8.085938,6,10,1416095891,-0.08447266,1.113541,-0.03030396,26.91355,30.1169,-7.043976,266.5078,269.5901,10,0.1157479,0.002139051,0.1503083,-0.5122859,-0.3101047,-1.401367,0.0203785,0.4195937,0.278741,0.01831367,-0.2056366,-0.3096379,172.17.160.76,10.64.29.0,2,unknown,1,2014-11-15 17:58:11.950,8,2014-11-15 17:52:35.410,3
2014-11-15 17:58:12.118,12050,401.6667,40.10478,-88.22195,235.5342,0,58.71094,6,10,1416095892,-0.03239441,0.9620361,-0.2115479,27.25681,30.59872,-6.909515,266.4297,269.512,10,-0.07687721,0.01417973,0.0438833,-0.4691477,-0.2629797,-1.397686,0.07932858,0.01954633,0.07154749,-0.1098858,0.09937318,-0.008036576,172.17.160.76,10.64.29.0,2,unknown,1,2014-11-15 17:58:11.950,8,2014-11-15 17:52:35.410,3
2014-11-15 17:58:12.151,12051,401.7,40.10478,-88.22195,235.5342,0,58.71094,6,10,1416095892,-0.04518127,0.9559784,-0.2590942,27.80602,30.59872,-6.842255,266.5649,269.6472,10,-0.1058519,0.02851127,0.1109406,-0.4560021,-0.2439734,-1.398727,0.004772328,0.1492923,0.08206312,0.02631523,-0.07011715,0.01185437,172.17.160.76,10.64.29.0,2,unknown,1,2014-11-15 17:58:11.950,8,2014-11-15 17:52:35.410,3
2014-11-15 17:58:12.184,12052,401.7334,40.10478,-88.22195,235.5342,0,58.71094,6,10,1416095892,-0.1218109,1.667603,0.4168549,28.11496,30.90848,-6.875763,266.7475,269.8298,10,-0.1921511,-0.0641955,0.07043928,-0.4438495,-0.2302926,-1.400415,-0.1041541,0.04867891,0.119093,-0.006477532,-0.0295418,-0.09401252,172.17.160.76,10.64.29.0,2,unknown,1,2014-11-15 17:58:11.950,8,2014-11-15 17:52:35.410,3
2014-11-15 17:58:12.218,12053,401.7667,40.10478,-88.22195,235.5342,0,58.71094,6,10,1416095892,-0.05181885,1.02829,-0.2404327,28.38956,30.63316,-6.741364,265.3621,268.4444,10,-0.1775596,0.1862759,-0.1087483,-0.4437488,-0.2300963,-1.405746,-0.04076465,-0.08885192,-0.07930435,-0.08433843,0.6811924,0.5768262,172.17.160.76,10.64.29.0,2,unknown,1,2014-11-15 17:58:11.950,8,2014-11-15 17:52:35.410,3
2014-11-15 17:58:12.251,12054,401.8,40.10478,-88.22195,235.5342,0,58.71094,6,10,1416095892,0.009384155,0.7460327,-0.009552002,28.52687,30.70199,-6.674164,265.3105,268.3928,10,-0.2262683,-0.1791471,0.04236317,-0.4567538,-0.2388761,-1.410612,-0.216118,0.0307017,0.1236633,-0.01407938,0.0410919,-0.08546165,172.17.160.76,10.64.29.0,2,unknown,1,2014-11-15 17:58:11.950,8,2014-11-15 17:52:35.410,3
2014-11-15 17:58:12.284,12055,401.8333,40.10478,-88.22195,235.5342,0,58.71094,6,10,1416095892,-0.0294342,0.9601593,-0.2507477,28.73282,30.90848,-6.741364,265.0391,268.1214,10,-0.2253804,0.06083246,0.1625095,-0.4515413,-0.2360757,-1.41427,-0.08179763,-0.05026732,0.1036272,0.04584467,-0.241742,0.1420123,172.17.160.76,10.64.29.0,2,unknown,1,2014-11-15 17:58:11.950,8,2014-11-15 17:52:35.410,3
2014-11-15 17:58:12.318,12056,401.8667,40.10478,-88.22195,235.5342,0,58.71094,6,10,1416095892,-0.09088135,1.21756,-0.1567688,28.97311,30.87405,-6.640472,264.9724,268.0547,10,-0.284045,0.01090351,0.1603433,-0.4239026,-0.2005509,-1.423463,-0.1819042,0.2625146,0.1491698,0.09127111,0.02362084,0.09330643,172.17.160.76,10.64.29.0,2,unknown,1,2014-11-15 17:58:11.950,8,2014-11-15 17:52:35.410,3
2014-11-15 17:58:12.351,12057,401.9,40.10478,-88.22195,235.5342,0,58.71094,6,10,1416095892,-0.1221924,0.9380493,-0.3827515,29.52232,30.87405,-6.573212,264.5939,267.6762,10,-0.3769723,0.02310985,0.223383,-0.3946542,-0.1678046,-1.431427,-0.1086387,0.02260915,0.1847839,-0.06767944,0.227256,-0.01980167,172.17.160.76,10.64.29.0,2,unknown,1,2014-11-15 17:58:11.950,8,2014-11-15 17:52:35.410,3
