time,timestamp,recordtime,lat,long,alt,speed,course,verticalAccuracy,horizontalAccuracy,locTimeStamp,accelerationX,accelerationY,accelerationZ,HeadingX,HeadingY,HeadingZ,TrueHeading,MagneticHeading,HeadingAccuracy,RotationX,RotationY,RotationZ,motionYaw,motionRoll,motionPitch,motionRotationRateX,motionRotationRateY,motionRotationRateZ,motionUserAccelerationX,motionUserAccelerationY,motionUserAccelerationZ,en0,pdp_ip0,DeviceOrientation,Activity,Activity Confidence,Activity Start,Steps,Last Step Date,State
2014-11-15 18:00:40.884,16508,550.2667,40.10479,-88.22198,233.8006,0.62,271.0547,4,10,1416096040,0.1916656,1.011398,0.1253357,32.48305,27.91019,-7.488739,235.9218,239.0041,10,-0.04528945,0.1711097,-0.139045,1.704271,1.786031,-1.33321,-0.01493515,0.0887447,-0.0680173,0.00580577,0.09243754,0.1100723,172.17.160.76,10.64.29.0,2,unknown,0,2014-11-15 18:00:40.380,8,2014-11-15 17:52:35.410,3
2014-11-15 18:00:40.918,16509,550.3,40.10479,-88.22198,233.8006,0.62,271.0547,4,10,1416096040,0.227478,0.9254761,0.02954102,32.51731,28.1512,-7.522247,235.2415,238.3238,10,-0.1758951,0.5137403,-0.2237931,1.706354,1.797985,-1.337669,0.0006500891,0.4820511,-0.1870136,-0.01103476,-0.005404094,0.03747302,172.17.160.76,10.64.29.0,2,unknown,0,2014-11-15 18:00:40.380,8,2014-11-15 17:52:35.410,3
2014-11-15 18:00:40.951,16510,550.3334,40.10479,-88.22198,233.8006,0.62,271.0547,4,10,1416096040,0.2567444,0.9431915,0.04367065,32.2775,27.70358,-7.019257,235.9887,239.071,10,-0.2592095,0.3374619,-0.2148561,1.715991,1.818472,-1.341312,-0.1111462,0.5796983,-0.2083719,0.006943626,-0.04830765,-0.02622491,172.17.160.76,10.64.29.0,2,unknown,0,2014-11-15 18:00:40.380,8,2014-11-15 17:52:35.410,3
2014-11-15 18:00:40.984,16511,550.3667,40.10479,-88.22198,233.8006,0.62,271.0547,4,10,1416096040,0.1631012,0.9959412,0.06613159,32.65434,27.73801,-6.784515,236.8975,239.9798,10,-0.1502358,-0.2268821,-0.08342778,1.753118,1.867768,-1.346386,-0.1267771,0.02042544,-0.1167867,0.03275418,0.008060861,0.01547855,172.17.160.76,10.64.29.0,2,unknown,0,2014-11-15 18:00:40.380,8,2014-11-15 17:52:35.410,3
2014-11-15 18:00:41.018,16512,550.4,40.10479,-88.22198,233.8006,0.62,271.0547,4,10,1416096040,0.1956635,0.9781494,0.06526184,32.72285,27.9446,-6.516144,237.3334,240.4157,10,-0.1724921,-0.1803562,-0.1149439,1.773363,1.882361,-1.348304,-0.09712031,-0.1249586,-0.09006493,-0.03826962,0.0002965304,-0.01477174,172.17.160.76,10.64.29.0,2,unknown,0,2014-11-15 18:00:40.380,8,2014-11-15 17:52:35.410,3
2014-11-15 18:00:41.051,16513,550.4333,40.10479,-88.22198,233.8006,0.62,271.0547,4,10,1416096040,0.1685944,0.9384155,0.1656952,32.68859,28.52992,-6.415497,237.5741,240.6564,10,0.03181572,-0.2338122,-0.004534831,1.78137,1.88396,-1.35256,0.05308177,-0.2099078,-0.0730328,-0.03324876,0.02706093,0.07236874,172.17.160.76,10.64.29.0,2,unknown,0,2014-11-15 18:00:40.380,8,2014-11-15 17:52:35.410,3
2014-11-15 18:00:41.084,16514,550.4667,40.10479,-88.22198,233.8006,0.62,271.0547,4,10,1416096040,0.2926636,0.9748993,0.1289673,32.24324,28.77095,-6.381989,237.4251,240.5074,10,0.08105118,-0.01076237,-0.01309796,1.794494,1.895232,-1.354177,0.1274275,-0.04640375,0.05491947,-0.03512222,-0.03821409,0.09718142,172.17.160.76,10.64.29.0,2,unknown,0,2014-11-15 18:00:40.380,8,2014-11-15 17:52:35.410,3
2014-11-15 18:00:41.118,16515,550.5,40.10478,-88.22198,233.7718,0.23,246.4453,4,10,1416096041,0.3221741,0.9700775,0.0693512,32.14046,28.3922,-6.482574,237.4983,240.5806,10,0.1452962,0.03534494,-0.09482984,1.774169,1.878478,-1.351433,0.2014631,0.1237434,-0.06333032,0.1130607,0.002418447,0.07478323,172.17.160.76,10.64.29.0,2,unknown,0,2014-11-15 18:00:40.380,8,2014-11-15 17:52:35.410,3
2014-11-15 18:00:41.151,16516,550.5334,40.10478,-88.22198,233.7718,0.23,246.4453,4,10,1416096041,0.2345581,0.9267883,0.06503296,31.90066,28.15118,-6.449066,237.4026,240.485,10,0.07931054,-0.03516118,-0.1490896,1.752599,1.860191,-1.355871,0.1653763,0.085036,-0.1260266,0.09146237,-0.02357747,-0.00329113,172.17.160.76,10.64.29.0,2,unknown,0,2014-11-15 18:00:40.380,8,2014-11-15 17:52:35.410,3
2014-11-15 18:00:41.184,16517,550.5667,40.10478,-88.22198,233.7718,0.23,246.4453,4,10,1416096041,0.1052246,0.9513092,0.07731628,31.6266,28.35777,-6.381989,237.3946,240.4769,10,0.03937084,-0.06371187,0.008008924,1.734778,1.841302,-1.360438,0.1137277,-0.09366369,-0.01319575,-0.0199584,-0.03247571,0.05438547,172.17.160.76,10.64.29.0,2,unknown,0,2014-11-15 18:00:40.380,8,2014-11-15 17:52:35.410,3
2014-11-15 18:00:41.218,16518,550.6,40.10478,-88.22198,233.7718,0.23,246.4453,4,10,1416096041,0.1162415,0.972229,0.002197266,31.45531,28.59879,-6.147247,237.4332,240.5155,10,-0.01497442,0.0746532,0.0354781,1.724221,1.830002,-1.360736,0.1040962,0.002246591,0.0234357,-0.09632806,-0.02670923,0.02387039,172.17.160.76,10.64.29.0,2,unknown,0,2014-11-15 18:00:40.380,8,2014-11-15 17:52:35.410,3
2014-11-15 18:00:41.251,16519,550.6334,40.10478,-88.22198,233.7718,0.23,246.4453,4,10,1416096041,0.1018372,1.01149,-0.05149841,32.17472,28.56435,-5.912445,238.6893,241.7717,10,-0.1197019,0.0487236,0.1132219,1.714414,1.823943,-1.359703,0.01767353,0.1547047,0.08612802,-0.08660933,-0.005573507,-0.05027947,172.17.160.76,10.64.29.0,2,unknown,0,2014-11-15 18:00:40.380,8,2014-11-15 17:52:35.410,3
2014-11-15 18:00:41.284,16520,550.6667,40.10478,-88.22198,233.7718,0.23,246.4453,4,10,1416096041,0.1914215,0.9665375,-0.05210876,32.6886,28.3922,-5.610626,240.0861,243.1684,10,-0.2158106,-0.1211568,0.1243635,1.718248,1.831849,-1.354328,-0.09874921,0.03927426,0.1305382,-0.09457459,0.05530514,-0.1079555,172.17.160.76,10.64.29.0,2,unknown,0,2014-11-15 18:00:40.380,8,2014-11-15 17:52:35.410,3
2014-11-15 18:00:41.317,16521,550.7,40.10478,-88.22198,233.7718,0.23,246.4453,4,10,1416096041,0.2228699,0.9535065,0.005020142,32.85989,28.15118,-5.442841,240.2633,243.3456,10,-0.2278968,-0.2288412,0.2161906,1.742833,1.852479,-1.344223,-0.1801453,-0.1268911,0.2127635,-0.003552145,-0.01786836,-0.0680589,172.17.160.76,10.64.29.0,2,unknown,0,2014-11-15 18:00:40.380,8,2014-11-15 17:52:35.410,3
2014-11-15 18:00:41.351,16522,550.7333,40.10478,-88.22198,233.7718,0.23,246.4453,4,10,1416096041,0.2720032,0.9669952,0.05389404,32.55157,28.11674,-5.476349,239.8594,242.9417,10,-0.1918392,-0.2922638,0.2624268,1.75048,1.856447,-1.338715,-0.1483738,-0.2062269,0.2621163,0.01053271,-0.02336063,-0.05762397,172.17.160.76,10.64.29.0,2,unknown,0,2014-11-15 18:00:40.380,8,2014-11-15 17:52:35.410,3
2014-11-15 18:00:41.384,16523,550.7667,40.10478,-88.22198,233.7718,0.23,246.4453,4,10,1416096041,0.2980652,0.9873352,0.04718018,32.6886,28.04787,-5.811737,238.1156,241.1979,10,-0.04424709,-0.2349728,0.1188758,1.750688,1.848457,-1.328473,0.001114248,-0.1813509,0.1884452,0.07155394,0.016659,-0.007317833,172.17.160.76,10.64.29.0,2,unknown,0,2014-11-15 18:00:40.380,8,2014-11-15 17:52:35.410,3
2014-11-15 18:00:41.417,16524,550.8,40.10478,-88.22198,233.7718,0.23,246.4453,4,10,1416096041,0.2353363,1.042236,0.03657532,32.62008,28.04787,-5.945892,237.4181,240.5004,10,0.02886441,-0.04599386,-0.03856364,1.742597,1.836863,-1.326145,0.07207724,-0.05194877,0.02114662,0.03965056,0.04082563,-0.01930085,172.17.160.76,10.64.29.0,2,unknown,0,2014-11-15 18:00:40.380,8,2014-11-15 17:52:35.410,3
2014-11-15 18:00:41.450,16525,550.8334,40.10478,-88.22198,233.7718,0.23,246.4453,4,10,1416096041,0.2271118,1.104034,0.1139526,32.41454,28.46106,-5.878815,236.9866,240.0689,10,0.175579,0.0789606,-0.2273988,1.733342,1.829462,-1.328533,0.09925968,0.0968176,-0.117226,-0.01350503,0.07655048,-0.02326299,172.17.160.76,10.64.29.0,2,unknown,0,2014-11-15 18:00:40.380,8,2014-11-15 17:52:35.410,3
2014-11-15 18:00:41.484,16526,550.8667,40.10478,-88.22198,233.7718,0.23,246.4453,4,10,1416096041,0.1292114,0.9944763,0.2260284,32.41454,28.52992,-5.543427,237.7599,240.8422,10,0.3304834,0.132365,-0.3221695,1.712317,1.813014,-1.336069,0.3193445,0.138101,-0.2653788,-0.02849277,0.1240867,0.1024635,172.17.160.76,10.64.29.0,2,unknown,0,2014-11-15 18:00:40.380,8,2014-11-15 17:52:35.410,3
2014-11-15 18:00:41.518,16527,550.9,40.10478,-88.22198,233.7718,0.23,246.4453,4,10,1416096041,0.1393585,0.7821045,0.1381989,32.44879,28.35777,-4.906281,240.2514,243.3337,10,0.2952953,0.8116165,-0.1465008,1.684105,1.802408,-1.354166,0.3891469,0.6253917,-0.3182816,-0.1101561,-0.1335181,0.1389851,172.17.160.76,10.64.29.0,2,unknown,0,2014-11-15 18:00:40.380,8,2014-11-15 17:52:35.410,3
2014-11-15 18:00:41.551,16528,550.9333,40.10478,-88.22198,233.7718,0.23,246.4453,4,10,1416096041,0.2154846,0.9061432,0.04574585,32.85989,28.15118,-4.302582,243.2858,246.3681,10,0.2917855,0.984862,0.0009092032,1.638657,1.783168,-1.361357,0.386499,0.9662876,-0.0606595,-0.01793765,-0.1345655,0.09494001,172.17.160.76,10.64.29.0,2,unknown,0,2014-11-15 18:00:40.380,8,2014-11-15 17:52:35.410,3
2014-11-15 18:00:41.584,16529,550.9667,40.10478,-88.22198,233.7718,0.23,246.4453,4,10,1416096041,0.3864746,0.9367828,0.09524536,33.47654,28.01346,-3.497711,245.8064,248.8887,10,0.1221832,0.6115183,-0.0609262,1.587941,1.764234,-1.363568,0.2882906,1.001794,-0.008092252,0.0135736,-0.07246173,0.006194058,172.17.160.76,10.64.29.0,2,unknown,0,2014-11-15 18:00:40.380,8,2014-11-15 17:52:35.410,3
2014-11-15 18:00:41.618,16530,551,40.10478,-88.22198,233.7718,0.23,246.4453,4,10,1416096041,0.3396606,1.064087,-0.01541138,33.54505,28.42664,-3.564789,245.9326,249.015,10,0.01385882,-0.4386216,-0.1116943,1.540909,1.73774,-1.356857,0.1307313,-0.2084655,-0.01702684,0.1637638,0.01377991,0.01269416,172.17.160.76,10.64.29.0,2,unknown,0,2014-11-15 18:00:40.380,8,2014-11-15 17:52:35.410,3
2014-11-15 18:00:41.651,16531,551.0334,40.10478,-88.22198,233.7718,0.23,246.4453,4,10,1416096041,0.1311035,1.19928,-0.01080322,33.61356,28.15118,-3.162384,247.0622,250.1445,10,-0.03511298,-0.5452247,-0.1609005,1.540909,1.73774,-1.356857,0.1307313,-0.2084655,-0.01702684,0.1637638,0.01377991,0.01269416,172.17.160.76,10.64.29.0,2,unknown,0,2014-11-15 18:00:40.380,8,2014-11-15 17:52:35.410,3
2014-11-15 18:00:41.684,16532,551.0667,40.10478,-88.22198,233.7718,0.23,246.4453,4,10,1416096041,0.2760773,1.188141,-0.1226807,33.54505,28.56436,-3.296478,247.037,250.1193,10,0.0297547,-0.3734514,-0.06364395,1.531044,1.705648,-1.362476,0.08587845,-0.4477847,-0.05208671,-0.1294842,0.2361588,-0.04668029,172.17.160.76,10.64.29.0,2,unknown,0,2014-11-15 18:00:40.380,8,2014-11-15 17:52:35.410,3
2014-11-15 18:00:41.717,16533,551.1,40.10478,-88.22198,233.7718,0.23,246.4453,4,10,1416096041,0.2381287,0.8233032,-0.06573486,33.40802,28.56436,-3.363556,247.2803,250.3626,10,-0.1686764,-0.3554313,-0.3642669,1.533203,1.698973,-1.370601,-0.07286351,-0.2015094,-0.3760705,0.1503357,0.1306136,-0.1299117,172.17.160.76,10.64.29.0,2,unknown,0,2014-11-15 18:00:40.380,8,2014-11-15 17:52:35.410,3
2014-11-15 18:00:41.751,16534,551.1334,40.10478,-88.22198,233.7718,0.23,246.4453,4,10,1416096041,0.1212921,0.6548309,0.04415894,33.23672,28.73653,-3.598358,247.2112,250.2935,10,-0.09535582,-0.5140279,0.0273717,1.555859,1.705738,-1.379978,-0.02815229,-0.4637956,-0.06872801,-0.05637711,-0.3059308,0.01105947,172.17.160.76,10.64.29.0,2,unknown,0,2014-11-15 18:00:40.380,8,2014-11-15 17:52:35.410,3
2014-11-15 18:00:41.784,16535,551.1667,40.10478,-88.22198,233.7718,0.23,246.4453,4,10,1416096041,0.2340088,1.170776,0.02955627,33.06544,28.77096,-3.698944,247.5749,250.6572,10,-0.2324098,-0.5385509,-0.1335895,1.564764,1.701554,-1.377665,-0.1277656,-0.4189255,0.09853386,-0.05121052,-0.1100091,-0.03070159,172.17.160.76,10.64.29.0,2,unknown,0,2014-11-15 18:00:40.380,8,2014-11-15 17:52:35.410,3
2014-11-15 18:00:41.818,16536,551.2,40.10478,-88.22198,233.7718,0.23,246.4453,4,10,1416096041,0.1652679,1.135605,-0.002182007,33.06544,28.97754,-3.766022,247.4585,250.5408,10,-0.2324098,-0.5385509,-0.1335895,1.572511,1.704757,-1.377003,-0.1616704,-0.4471115,0.02208566,-0.01661718,0.05738502,-0.02706411,172.17.160.76,10.64.29.0,2,unknown,0,2014-11-15 18:00:40.380,8,2014-11-15 17:52:35.410,3
2014-11-15 18:00:41.851,16537,551.2333,40.10478,-88.22198,233.7718,0.23,246.4453,4,10,1416096041,0.1004333,0.8647156,-0.02430725,32.62008,29.28744,-3.598297,247.3306,250.4129,10,-0.3054337,-0.3854835,-0.2715641,1.627538,1.733694,-1.388239,-0.1925983,-0.4412159,-0.3259337,-0.02495179,-0.01669253,-0.0456475,172.17.160.76,10.64.29.0,2,unknown,0,2014-11-15 18:00:40.380,8,2014-11-15 17:52:35.410,3
2014-11-15 18:00:41.886,16538,551.2667,40.10478,-88.22198,233.7718,0.23,246.4453,4,10,1416096041,0.1229858,0.9637146,-0.03240967,32.65434,29.66618,-3.430634,247.6402,250.7225,10,-0.3130336,-0.2999683,-0.204212,1.658114,1.756556,-1.393216,-0.2406881,-0.3195363,-0.2561166,-0.07317623,-0.1195584,-0.0569331,172.17.160.76,10.64.29.0,2,unknown,0,2014-11-15 18:00:40.380,8,2014-11-15 17:52:35.410,3
2014-11-15 18:00:41.918,16539,551.3,40.10478,-88.22198,233.7718,0.23,246.4453,4,10,1416096041,0.09838867,1.051315,0.02549744,32.44879,29.32186,-3.028107,248.5245,251.6068,10,0.01450357,0.0739677,-0.1949775,1.694214,1.791986,-1.405114,0.0920867,0.1346371,-0.1700469,-0.03779964,0.1124641,0.006663528,172.17.160.76,10.64.29.0,2,unknown,0,2014-11-15 18:00:40.380,8,2014-11-15 17:52:35.410,3
2014-11-15 18:00:41.951,16540,551.3334,40.10478,-88.22198,233.7718,0.23,246.4453,4,10,1416096041,0.1530304,0.9780426,-0.001525879,32.89415,29.21856,-2.256744,250.2295,253.3118,10,0.007989749,0.07107072,-0.156755,1.69065,1.791313,-1.412927,0.06754532,0.1421602,-0.160377,-0.05579717,-0.0280918,-0.009012833,172.17.160.76,10.64.29.0,2,unknown,0,2014-11-15 18:00:40.380,8,2014-11-15 17:52:35.410,3
2014-11-15 18:00:41.984,16541,551.3667,40.10478,-88.22198,233.7718,0.23,246.4453,4,10,1416096041,0.1272736,1.01149,0.008773804,32.65434,29.11526,-1.887909,251.0744,254.1567,10,0.1058535,-0.2861481,-0.1770477,1.66945,1.769434,-1.419529,0.1044495,-0.2645654,-0.1265664,-0.05591588,-0.02456111,-0.04784866,172.17.160.76,10.64.29.0,2,unknown,0,2014-11-15 18:00:40.380,8,2014-11-15 17:52:35.410,3
2014-11-15 18:00:42.018,16542,551.4,40.10478,-88.22198,233.7718,0.23,246.4453,4,10,1416096041,0.09910583,1.144577,-0.06518555,32.44879,29.59731,-1.418365,252.9036,255.9859,10,0.3432074,-0.07400179,-0.3519639,1.649261,1.745077,-1.423843,0.2444895,-0.2027888,-0.2392826,-0.01693325,0.02226808,-0.01661623,172.17.160.76,10.64.29.0,2,unknown,0,2014-11-15 18:00:40.380,8,2014-11-15 17:52:35.410,3
2014-11-15 18:00:42.051,16543,551.4333,40.10478,-88.22198,233.7718,0.23,246.4453,4,10,1416096041,0.1054535,1.095352,-0.08807373,32.20898,29.70061,-1.653168,253.0484,256.1307,10,0.4776121,-0.07746443,-0.3800839,1.561264,1.655279,-1.437845,0.4774161,-0.02960652,-0.3676922,-0.03298123,0.153402,-0.0763712,172.17.160.76,10.64.29.0,2,unknown,0,2014-11-15 18:00:40.380,8,2014-11-15 17:52:35.410,3
2014-11-15 18:00:42.085,16544,551.4667,40.10478,-88.22198,233.7718,0.23,246.4453,4,10,1416096041,-0.08708191,1.39975,-0.07569885,31.14698,30.49253,-2.625702,254.3236,257.4059,10,0.6714892,-0.2938441,-0.7407303,1.337995,1.429276,-1.457812,0.6183433,-0.361289,-0.5217548,-0.017974,0.2236153,0.08967866,172.17.160.76,10.64.29.0,2,unknown,0,2014-11-15 18:00:40.380,8,2014-11-15 17:52:35.410,3
2014-11-15 18:00:42.118,16545,551.5,40.10477,-88.22198,233.7218,0.46,219.0234,4,10,1416096042,0.1412964,0.8708649,-0.01635742,30.53034,30.63026,-2.893951,253.9131,256.9954,10,0.4610454,-0.1154134,-0.9056553,1.090034,1.175764,-1.472446,0.67178,-0.08113229,-0.8484776,-0.2053298,0.2980912,-0.06090592,172.17.160.76,10.64.29.0,2,unknown,0,2014-11-15 18:00:40.380,8,2014-11-15 17:52:35.410,3
2014-11-15 18:00:42.151,16546,551.5334,40.10477,-88.22198,233.7218,0.46,219.0234,4,10,1416096042,0.2545776,1.177689,0.02850342,29.81092,30.73357,-3.061676,257.7799,260.8622,10,0.5484676,-0.2703657,-0.5936615,0.8103977,0.8957375,-1.486098,0.482611,-0.07026859,-0.6874284,0.2533396,-0.09683336,0.01913095,172.17.160.76,10.64.29.0,2,unknown,0,2014-11-15 18:00:40.380,8,2014-11-15 17:52:35.410,3
2014-11-15 18:00:42.184,16547,551.5667,40.10477,-88.22198,233.7218,0.46,219.0234,4,10,1416096042,-0.1581268,1.03331,0.02165222,29.39982,30.80243,-3.061737,257.9416,261.0239,10,0.5431618,-0.8852332,-1.111698,0.3739641,0.4478429,-1.483818,0.7078257,-0.7641242,-0.9562346,-0.1939426,0.4565391,0.3259373,172.17.160.76,10.64.29.0,2,unknown,0,2014-11-15 18:00:40.380,8,2014-11-15 17:52:35.410,3
2014-11-15 18:00:42.218,16548,551.6,40.10477,-88.22198,233.7218,0.46,219.0234,4,10,1416096042,0.2661133,0.6352692,-0.1654205,28.64615,31.14674,-3.464142,263.4762,266.5585,10,0.3729635,0.4441418,-0.5425365,-0.09323531,-0.03068258,-1.469794,0.4639499,0.3478696,-0.7562761,0.1573444,-0.2761078,-0.07420441,172.17.160.76,10.64.29.0,2,unknown,0,2014-11-15 18:00:40.380,8,2014-11-15 17:52:35.410,3
2014-11-15 18:00:42.251,16549,551.6334,40.10477,-88.22198,233.7218,0.46,219.0234,4,10,1416096042,-0.284317,1.292206,0.1646729,27.41286,31.62879,-3.933685,266.4843,269.5667,10,0.5347689,-1.151711,-0.5175787,-0.2024448,-0.1304922,-1.453919,0.603016,-0.203787,-0.3489085,0.320792,-0.09673907,0.1553382,172.17.160.76,10.64.29.0,2,unknown,0,2014-11-15 18:00:40.380,8,2014-11-15 17:52:35.410,3
2014-11-15 18:00:42.284,16550,551.6667,40.10477,-88.22198,233.7218,0.46,219.0234,4,10,1416096042,0.04197693,0.5240479,-0.1105499,26.93324,31.83537,-4.000763,267.43,270.5123,10,0.2090137,-0.573557,-0.5218062,-0.2720939,-0.2224635,-1.440907,0.4867277,-1.456544,-0.6384857,-0.2557397,0.3006295,0.2910049,172.17.160.76,10.64.29.0,2,unknown,0,2014-11-15 18:00:40.380,8,2014-11-15 17:52:35.410,3
2014-11-15 18:00:42.318,16551,551.7,40.10477,-88.22198,233.7218,0.46,219.0234,4,10,1416096042,0.2455292,0.9098053,0.02124023,25.93976,31.80095,-3.900116,269.4859,272.5682,10,0.04203294,0.4454403,0.3153255,-0.3609184,-0.3251206,-1.427156,0.06923804,0.4913957,0.0770978,0.3263489,-0.594987,-0.07458749,172.17.160.76,10.64.29.0,2,unknown,0,2014-11-15 18:00:40.380,8,2014-11-15 17:52:35.410,3
2014-11-15 18:00:42.351,16552,551.7333,40.10477,-88.22198,233.7218,0.46,219.0234,4,10,1416096042,-0.3302307,0.8818054,0.1123047,25.73421,32.00755,-3.497772,270.8184,273.9007,10,0.119254,-1.074406,0.1276424,-0.2795865,-0.2394546,-1.426177,0.2093807,-0.4680287,0.3772274,-0.03018127,0.09802458,0.2242779,172.17.160.76,10.64.29.0,2,unknown,0,2014-11-15 18:00:40.380,8,2014-11-15 17:52:35.410,3
2014-11-15 18:00:42.384,16553,551.7667,40.10477,-88.22198,233.7218,0.46,219.0234,4,10,1416096042,0.3125305,0.532547,-0.2715149,25.9055,32.38629,-3.061737,271.1317,274.214,10,0.05868329,0.4368671,0.4479032,-0.2237341,-0.2162833,-1.421144,0.1035256,-0.3793646,0.1509334,0.004041762,-0.416481,0.007010205,172.17.160.76,10.64.29.0,2,unknown,0,2014-11-15 18:00:40.380,8,2014-11-15 17:52:35.410,3
2014-11-15 18:00:42.418,16554,551.8,40.10477,-88.22198,233.7218,0.46,219.0234,4,10,1416096042,-0.1118622,0.95578,-0.08332825,26.11105,32.52401,-3.128815,271.019,274.1013,10,0.1962009,-0.07579143,0.6718458,-0.1754905,-0.16411,-1.420649,0.1235153,0.5027758,0.4633336,0.3369687,-0.456202,-0.1239407,172.17.160.76,10.64.29.0,2,unknown,0,2014-11-15 18:00:40.380,8,2014-11-15 17:52:35.410,3
2014-11-15 18:00:42.451,16555,551.8334,40.10477,-88.22198,233.7218,0.46,219.0234,4,10,1416096042,0.0001525879,0.760788,0.01856995,27.24157,32.07639,-2.826935,270.6529,273.7352,10,0.04858219,0.07404546,0.5235186,-0.002745989,0.00549931,-1.412898,0.2311028,-0.4014409,0.6142069,-0.1846721,-0.005458449,0.1429435,172.17.160.76,10.64.29.0,2,unknown,0,2014-11-15 18:00:40.380,8,2014-11-15 17:52:35.410,3
2014-11-15 18:00:42.484,16556,551.8667,40.10477,-88.22198,233.7218,0.46,219.0234,4,10,1416096042,0.1687622,0.8874664,-0.09104919,27.99524,31.52549,-3.631866,268.6289,271.7112,10,-0.01510012,0.1079763,0.7924907,0.1010206,0.1088978,-1.407885,0.08452178,0.2860874,0.6120073,0.04972485,-0.2799264,0.06784733,172.17.160.76,10.64.29.0,2,unknown,0,2014-11-15 18:00:40.380,8,2014-11-15 17:52:35.410,3
2014-11-15 18:00:42.518,16557,551.9,40.10477,-88.22198,233.7218,0.46,219.0234,4,10,1416096042,-0.01620483,0.8251495,-0.2004242,29.12576,31.42219,-3.464142,268.0897,271.172,10,-0.1416546,-0.6118613,0.8613547,0.2876772,0.2934997,-1.400008,-0.03202772,-0.538578,0.8713485,-0.01054979,0.006003922,0.017351,172.17.160.76,10.64.29.0,2,unknown,0,2014-11-15 18:00:40.380,8,2014-11-15 17:52:35.410,3
2014-11-15 18:00:42.551,16558,551.9333,40.10477,-88.22198,233.7218,0.46,219.0234,4,10,1416096042,0.0006408691,0.8943634,-0.2473755,30.08499,31.42219,-3.79953,265.9709,269.0532,10,-0.1886871,0.5323845,0.8410193,0.4857542,0.4819889,-1.390323,-0.07609104,0.5359734,0.9090164,-0.0464146,-0.2788791,0.02592828,172.17.160.76,10.64.29.0,2,unknown,0,2014-11-15 18:00:40.380,8,2014-11-15 17:52:35.410,3
2014-11-15 18:00:42.585,16559,551.9667,40.10477,-88.22198,233.7218,0.46,219.0234,4,10,1416096042,0.1851044,0.8846588,-0.1626892,32.31176,30.90572,-3.967255,265.6398,268.7221,10,-0.2402632,0.07032236,0.857886,0.574256,0.5796348,-1.383651,-0.1368521,0.3933353,0.8713409,-0.101265,-0.0881759,-0.0917101,172.17.160.76,10.64.29.0,2,unknown,0,2014-11-15 18:00:40.380,8,2014-11-15 17:52:35.410,3
2014-11-15 18:00:42.618,16560,552,40.10477,-88.22198,233.7218,0.46,219.0234,4,10,1416096042,-0.007202148,0.9612885,-0.1734161,32.96266,30.73357,-4.134857,264.7213,267.8036,10,0.1631921,0.38084,0.7752148,0.723453,0.7338601,-1.364042,0.1147694,0.3367074,0.8456863,-0.08156392,-0.02803403,-0.1084517,172.17.160.76,10.64.29.0,2,unknown,0,2014-11-15 18:00:40.380,8,2014-11-15 17:52:35.410,3
2014-11-15 18:00:42.651,16561,552.0334,40.10477,-88.22198,233.7218,0.46,219.0234,4,10,1416096042,0.3236694,0.8609161,-0.1576538,34.8126,29.83836,-4.470306,261.5016,264.5839,10,-0.1501818,-0.1120344,0.6347386,0.7769483,0.7991626,-1.34522,0.09626858,0.2562145,0.5969447,-0.1578927,-0.02790339,-0.03429677,172.17.160.76,10.64.29.0,2,unknown,0,2014-11-15 18:00:40.380,8,2014-11-15 17:52:35.410,3
2014-11-15 18:00:42.685,16562,552.0667,40.10477,-88.22198,233.7218,0.46,219.0234,4,10,1416096042,0.1035309,0.8661499,-0.2058563,35.39498,29.59733,-4.235504,261.2086,264.2909,10,0.02219132,0.101622,0.797625,0.8366902,0.8568768,-1.331387,0.03587995,-0.07631828,0.7408428,0.1071852,-0.08805534,0.04894905,172.17.160.76,10.64.29.0,2,unknown,0,2014-11-15 18:00:40.380,8,2014-11-15 17:52:35.410,3
2014-11-15 18:00:42.717,16563,552.1,40.10477,-88.22198,233.7218,0.46,219.0234,4,10,1416096042,0.3056641,0.9885254,-0.02987671,37.00511,28.87427,-4.403107,260.2161,263.2984,10,-0.002515356,-0.1645828,0.4385963,0.8923504,0.9236782,-1.304142,0.1720189,0.4008094,0.6133446,-0.08138604,0.1655301,0.02214606,172.17.160.76,10.64.29.0,2,unknown,0,2014-11-15 18:00:40.380,8,2014-11-15 17:52:35.410,3
2014-11-15 18:00:42.751,16564,552.1334,40.10477,-88.22198,233.7218,0.46,219.0234,4,10,1416096042,0.322113,0.8122864,-0.2032318,37.99859,28.1512,-4.570831,258.1405,261.2228,10,0.11943,0.007321563,0.6980465,0.9174573,0.947476,-1.290867,0.06300206,-0.2925598,0.5294288,0.08853563,-0.08497626,0.1084986,172.17.160.76,10.64.29.0,2,unknown,0,2014-11-15 18:00:40.380,8,2014-11-15 17:52:35.410,3
2014-11-15 18:00:42.784,16565,552.1667,40.10477,-88.22198,233.7218,0.46,219.0234,4,10,1416096042,0.2354889,0.8342438,-0.1737976,38.82079,27.73803,-5.241547,256.0463,259.1286,10,-0.0003081277,0.05453568,0.4694634,0.9455935,0.9729877,-1.271656,0.1821954,0.07730917,0.6912139,-0.1332534,0.002997534,-0.2259032,172.17.160.76,10.64.29.0,2,unknown,0,2014-11-15 18:00:40.380,8,2014-11-15 17:52:35.410,3
2014-11-15 18:00:42.818,16566,552.2,40.10477,-88.22198,233.7218,0.46,219.0234,4,10,1416096042,0.2771912,0.8813782,-0.2223358,39.40318,27.49702,-5.140961,256.0296,259.1119,10,0.03305089,-0.4088235,0.6017066,0.9807247,1.006164,-1.245762,0.1172328,-0.2155934,0.5943812,0.1985783,-0.1252215,0.1022929,172.17.160.76,10.64.29.0,2,unknown,0,2014-11-15 18:00:40.380,8,2014-11-15 17:52:35.410,3
2014-11-15 18:00:42.851,16567,552.2333,40.10477,-88.22198,233.7218,0.46,219.0234,4,10,1416096042,0.2624359,0.7060547,-0.1496277,40.94479,27.39371,-6.314667,253.3152,256.3975,10,-0.1435513,-0.1584006,0.5453051,0.9967432,1.015124,-1.234568,0.02973549,-0.2707094,0.6071563,-0.1139081,0.02436283,-0.07061699,172.17.160.76,10.64.29.0,2,unknown,0,2014-11-15 18:00:40.380,8,2014-11-15 17:52:35.410,3
2014-11-15 18:00:42.884,16568,552.2667,40.10477,-88.22198,233.7218,0.46,219.0234,4,10,1416096042,0.3905792,0.9583588,-0.1673126,43.1373,26.63622,-7.186676,250.9485,254.0308,10,-0.02836533,-0.4438984,0.4552674,1.031475,1.045958,-1.218635,0.02186001,-0.1817331,0.4314654,0.1207635,-0.01725779,0.01568362,172.17.160.76,10.64.29.0,2,unknown,0,2014-11-15 18:00:40.380,8,2014-11-15 17:52:35.410,3
2014-11-15 18:00:42.918,16569,552.3,40.10477,-88.22198,233.7218,0.46,219.0234,4,10,1416096042,0.1384125,0.6501007,-0.2048035,43.61692,26.29191,-7.723236,249.8099,252.8922,10,-0.223542,-0.3211543,0.5160876,1.043984,1.050298,-1.209861,0.02458097,-0.3860101,0.5375891,-0.01599245,0.01479625,-0.06822514,172.17.160.76,10.64.29.0,2,unknown,0,2014-11-15 18:00:40.380,8,2014-11-15 17:52:35.410,3
2014-11-15 18:00:42.951,16570,552.3334,40.10477,-88.22198,233.7218,0.46,219.0234,4,10,1416096042,0.6096649,1.183273,-0.02481079,44.37059,25.94759,-8.326935,247.7161,250.7984,10,-0.1398386,-0.4450009,0.3017641,1.093026,1.086539,-1.194919,-0.1546049,-0.2073878,0.2589693,0.1752718,-0.01189691,0.1101532,172.17.160.76,10.64.29.0,2,unknown,0,2014-11-15 18:00:40.380,8,2014-11-15 17:52:35.410,3
2014-11-15 18:00:42.984,16571,552.3667,40.10477,-88.22198,233.7218,0.46,219.0234,4,10,1416096042,0.117981,0.6685638,-0.4023132,44.26782,25.98201,-8.695892,246.6135,249.6958,10,-0.3165127,-0.1794939,0.2730409,1.109992,1.092357,-1.187893,-0.08568747,-0.3374276,0.3503753,-0.2137287,0.09341242,-0.1487446,172.17.160.76,10.64.29.0,2,unknown,0,2014-11-15 18:00:40.380,8,2014-11-15 17:52:35.410,3
2014-11-15 18:00:43.017,16572,552.4,40.10477,-88.22198,233.7218,0.46,219.0234,4,10,1416096042,0.6444397,1.17926,0.1053162,44.71317,25.87871,-10.60745,243.5388,246.6211,10,-0.1842338,-0.31924,0.2081207,1.126883,1.103963,-1.183543,-0.2516333,-0.1136153,0.2884863,-0.2192569,-0.2573858,-0.2323491,172.17.160.76,10.64.29.0,2,unknown,0,2014-11-15 18:00:40.380,8,2014-11-15 17:52:35.410,3
2014-11-15 18:00:43.050,16573,552.4333,40.10477,-88.22198,233.7218,0.46,219.0234,4,10,1416096042,0.1277313,0.756897,-0.4805145,45.60388,25.87871,-12.15018,240.8551,243.9374,10,-0.216425,-0.8020285,0.1547478,1.146805,1.109567,-1.179328,-0.04467442,-0.6644741,0.1001125,0.2318096,0.329709,0.0997841,172.17.160.76,10.64.29.0,2,unknown,0,2014-11-15 18:00:40.380,8,2014-11-15 17:52:35.410,3
2014-11-15 18:00:43.084,16574,552.4667,40.10477,-88.22198,233.7218,0.46,219.0234,4,10,1416096042,0.3125916,0.8853607,-0.2906799,45.9122,25.91315,-12.98862,239.7859,242.8682,10,-0.03596865,-0.4227859,0.1539462,1.161694,1.102327,-1.177001,-0.2174418,-0.5077305,0.1620892,-0.2146257,-0.1665624,-0.3072677,172.17.160.76,10.64.29.0,2,unknown,0,2014-11-15 18:00:40.380,8,2014-11-15 17:52:35.410,3
2014-11-15 18:00:43.118,16575,552.5,40.10477,-88.22198,233.8673,0,63.98438,4,10,1416096043,0.2312622,1.050812,-0.3082275,45.87794,26.4985,-14.2966,235.3855,238.4678,10,0.08785608,-0.5871993,0.0581448,1.158331,1.078559,-1.169489,0.253063,-0.4822798,0.04369826,0.195396,0.2722284,0.06413946,172.17.160.76,10.64.29.0,2,unknown,0,2014-11-15 18:00:40.380,8,2014-11-15 17:52:35.410,3
2014-11-15 18:00:43.151,16576,552.5334,40.10477,-88.22198,233.8673,0,63.98438,4,10,1416096043,0.3683777,0.8363495,-0.2397003,45.43259,26.60178,-16.34232,233.3114,236.3937,10,-0.1479093,-0.6750298,0.09147106,1.155419,1.064916,-1.167161,-0.0136776,-0.6061437,0.08756553,-0.3309662,-0.09192618,-0.3629591,172.17.160.76,10.64.29.0,2,unknown,0,2014-11-15 18:00:40.380,8,2014-11-15 17:52:35.410,3
2014-11-15 18:00:43.184,16577,552.5667,40.10477,-88.22198,233.8673,0,63.98438,4,10,1416096043,0.2867279,0.988739,-0.200882,45.36407,26.60178,-17.41556,232.1754,235.2577,10,0.3737864,-0.7050112,-0.04757151,1.152575,1.030741,-1.16187,0.3614491,-0.8561949,0.06467579,0.3617399,0.3616568,0.1786033,172.17.160.76,10.64.29.0,2,unknown,0,2014-11-15 18:00:40.380,8,2014-11-15 17:52:35.410,3
2014-11-15 18:00:43.218,16578,552.6,40.10477,-88.22198,233.8673,0,63.98438,4,10,1416096043,0.1991119,0.836319,-0.3560028,45.15853,25.56883,-20.09854,229.3394,232.4218,10,0.2407346,-0.5202197,-0.06839131,1.133374,1.001897,-1.15785,0.4336157,-0.3481396,-0.05180509,-0.05137313,0.07279653,0.01530559,172.17.160.76,10.64.29.0,2,unknown,0,2014-11-15 18:00:40.380,8,2014-11-15 17:52:35.410,3
2014-11-15 18:00:43.251,16579,552.6334,40.10477,-88.22198,233.8673,0,63.98438,4,10,1416096043,0.5228424,1.106796,-0.1932983,44.74743,25.08679,-22.44614,227.5363,230.6186,10,0.330486,-0.8561184,-0.2212267,1.104463,0.9550453,-1.153765,0.2544023,-0.870483,-0.1462337,0.01024002,0.06635629,-0.06970582,172.17.160.76,10.64.29.0,2,unknown,0,2014-11-15 18:00:40.380,8,2014-11-15 17:52:35.410,3
2014-11-15 18:00:43.284,16580,552.6667,40.10477,-88.22198,233.8673,0,63.98438,4,10,1416096043,0.1913147,0.9264679,-0.4232178,44.23356,24.63918,-23.8212,226.457,229.5393,10,0.3211184,-0.6054356,-0.2326093,1.060118,0.8846944,-1.151231,0.4565573,-0.4740981,-0.2680354,-0.02723713,0.08351422,0.003009347,172.17.160.76,10.64.29.0,2,unknown,0,2014-11-15 18:00:40.380,8,2014-11-15 17:52:35.410,3
2014-11-15 18:00:43.318,16581,552.7,40.10477,-88.22198,233.8673,0,63.98438,4,10,1416096043,0.3978271,1.099045,-0.3349762,43.03453,24.53588,-26.806,224.4212,227.5035,10,0.2247988,-0.9025405,-0.1839235,1.037458,0.8545972,-1.149304,0.3859939,-0.539561,-0.2171648,-0.1172892,0.01398848,-0.1546196,172.17.160.76,10.64.29.0,2,unknown,0,2014-11-15 18:00:40.380,8,2014-11-15 17:52:35.410,3
2014-11-15 18:00:43.351,16582,552.7333,40.10477,-88.22198,233.8673,0,63.98438,4,10,1416096043,0.2442627,1.090897,-0.4023895,41.39014,23.98497,-29.556,222.0693,225.1516,10,0.3268577,-0.4233499,-0.3218979,0.9998872,0.7902528,-1.145979,0.413799,-0.6441257,-0.2730167,0.1434462,0.2571445,0.08127852,172.17.160.76,10.64.29.0,2,unknown,0,2014-11-15 18:00:40.380,8,2014-11-15 17:52:35.410,3
2014-11-15 18:00:43.384,16583,552.7667,40.10477,-88.22198,233.8673,0,63.98438,4,10,1416096043,0.258316,1.057144,-0.4042969,40.70498,23.98497,-30.62918,220.6189,223.7012,10,-0.02911927,-0.9998695,-0.1431489,0.9592002,0.7325439,-1.144341,0.1170717,-0.8134111,-0.195309,-0.0467574,0.09001987,-0.258413,172.17.160.76,10.64.29.0,2,unknown,0,2014-11-15 18:00:40.380,8,2014-11-15 17:52:35.410,3
2014-11-15 18:00:43.418,16584,552.8,40.10477,-88.22198,233.8673,0,63.98438,4,10,1416096043,0.2422791,1.078094,-0.3188019,39.43743,23.60622,-33.01035,217.2697,220.352,10,-0.07007097,-0.3860726,-0.1938989,0.9488106,0.695118,-1.146569,0.01690131,-0.7730066,-0.1979057,0.1532092,0.3071792,0.07197171,172.17.160.76,10.64.29.0,2,unknown,0,2014-11-15 18:00:40.380,8,2014-11-15 17:52:35.410,3
2014-11-15 18:00:43.451,16585,552.8334,40.10477,-88.22198,233.8673,0,63.98438,4,10,1416096043,0.3345337,1.204971,-0.5384369,38.92356,24.19157,-34.45242,215.8058,218.8881,10,-0.2976058,-0.4146094,-0.04671264,0.938863,0.6792462,-1.152722,-0.1395301,-0.1146433,-0.1227338,-0.03691314,0.1594307,-0.09149124,172.17.160.76,10.64.29.0,2,unknown,0,2014-11-15 18:00:40.380,8,2014-11-15 17:52:35.410,3
2014-11-15 18:00:43.485,16586,552.8667,40.10477,-88.22198,233.8673,0,63.98438,4,10,1416096043,0.4167175,1.24762,-0.2609253,38.54672,24.29487,-35.08963,215.6774,218.7598,10,-0.2369737,0.1616416,0.1439772,0.9518937,0.6828922,-1.157658,-0.2255075,-0.05112471,0.1231249,0.2107428,0.2948281,0.0224362,172.17.160.76,10.64.29.0,2,unknown,0,2014-11-15 18:00:40.380,8,2014-11-15 17:52:35.410,3
2014-11-15 18:00:43.518,16587,552.9,40.10477,-88.22198,233.8673,0,63.98438,4,10,1416096043,0.1935577,0.9805603,-0.5223999,38.75227,24.98351,-34.62021,216.1275,219.2098,10,-0.3087722,0.2924891,0.3009729,0.9703571,0.7083462,-1.158069,-0.1786035,0.3672447,0.230239,0.07811259,0.2227789,-0.08788412,172.17.160.76,10.64.29.0,2,unknown,0,2014-11-15 18:00:40.380,8,2014-11-15 17:52:35.410,3
2014-11-15 18:00:43.551,16588,552.9333,40.10477,-88.22198,233.8673,0,63.98438,4,10,1416096043,0.5323639,1.174469,-0.2414093,39.26614,24.74249,-33.31223,216.5541,219.6364,10,-0.1800095,0.5091155,0.4321938,1.017573,0.7708458,-1.15578,-0.2133101,0.576338,0.4798567,0.05694538,0.1433163,-0.02954367,172.17.160.76,10.64.29.0,2,unknown,0,2014-11-15 18:00:40.380,8,2014-11-15 17:52:35.410,3
2014-11-15 18:00:43.585,16589,552.9667,40.10477,-88.22198,233.8673,0,63.98438,4,10,1416096043,0.2156067,0.8797455,-0.3847656,40.12259,24.77692,-31.06516,217.1809,220.2632,10,-0.346436,0.4509472,0.4579862,1.048356,0.815298,-1.148993,-0.1398112,0.4678596,0.4715797,0.04162587,0.2554337,-0.06525212,172.17.160.76,10.64.29.0,2,unknown,0,2014-11-15 18:00:40.380,8,2014-11-15 17:52:35.410,3
2014-11-15 18:00:43.618,16590,553,40.10477,-88.22198,233.8673,0,63.98438,4,10,1416096043,0.362854,1.04422,-0.2249451,40.80775,24.77692,-29.65665,218.0547,221.137,10,-0.249246,0.679342,0.456702,1.071986,0.8463108,-1.145173,-0.2815643,0.5168178,0.4734298,-0.09358116,-0.03103596,-0.1111235,172.17.160.76,10.64.29.0,2,unknown,0,2014-11-15 18:00:40.380,8,2014-11-15 17:52:35.410,3
2014-11-15 18:00:43.651,16591,553.0334,40.10477,-88.22198,233.8673,0,63.98438,4,10,1416096043,0.3233795,1.009216,-0.4111786,42.55492,24.67362,-26.60477,220.1636,223.2459,10,0.01039219,1.048231,0.3557701,1.110861,0.9166436,-1.134328,0.05281851,1.310142,0.4402648,0.1245037,0.2278898,-0.01467876,172.17.160.76,10.64.29.0,2,unknown,0,2014-11-15 18:00:40.380,8,2014-11-15 17:52:35.410,3
2014-11-15 18:00:43.684,16592,553.0667,40.10477,-88.22198,233.8673,0,63.98438,4,10,1416096043,0.3995667,0.8318787,-0.3499146,43.78821,24.46703,-25.06204,222.392,225.4743,10,-0.07641435,0.6853198,0.4146885,1.122836,0.9613197,-1.123706,0.04196095,0.852861,0.3890691,-0.03112005,0.1075076,-0.1636882,172.17.160.76,10.64.29.0,2,unknown,0,2014-11-15 18:00:40.380,8,2014-11-15 17:52:35.410,3
2014-11-15 18:00:43.718,16593,553.1,40.10477,-88.22198,233.8673,0,63.98438,4,10,1416096043,0.4571228,1.132523,-0.2300415,44.98724,23.60625,-22.41269,223.3282,226.4105,10,0.1861816,0.7386224,0.3131451,1.139481,1.019782,-1.101634,0.2710984,0.9231731,0.4278561,0.1315189,0.2109732,-0.0158454,172.17.160.76,10.64.29.0,2,unknown,0,2014-11-15 18:00:40.380,8,2014-11-15 17:52:35.410,3
2014-11-15 18:00:43.751,16594,553.1334,40.10477,-88.22198,233.8673,0,63.98438,4,10,1416096043,0.3801575,0.7701263,-0.3291016,45.9122,22.88319,-20.2327,224.5201,227.6024,10,-0.06325167,0.3639444,0.2102038,1.138367,1.033709,-1.094009,0.1444939,0.6010844,0.2610428,0.02207015,0.1973417,0.04347363,172.17.160.76,10.64.29.0,2,unknown,0,2014-11-15 18:00:40.380,8,2014-11-15 17:52:35.410,3
2014-11-15 18:00:43.785,16595,553.1667,40.10477,-88.22198,233.8673,0,63.98438,4,10,1416096043,0.4869537,1.077469,-0.1528625,46.39182,22.47001,-19.4949,225.0215,228.1038,10,-0.1592261,0.2874132,0.2006069,1.154794,1.064865,-1.088625,-0.1529528,0.3649274,0.2067773,0.07847205,0.04739008,0.06580108,172.17.160.76,10.64.29.0,2,unknown,0,2014-11-15 18:00:40.380,8,2014-11-15 17:52:35.410,3
2014-11-15 18:00:43.818,16596,553.2,40.10477,-88.22198,233.8673,0,63.98438,4,10,1416096043,0.3939667,0.8313904,-0.323761,47.41956,21.91908,-17.41562,226.279,229.3613,10,-0.09382077,0.55685,0.1444608,1.162223,1.079075,-1.085929,-0.05898447,0.4390147,0.1739095,0.06891286,0.2317031,-0.007827914,172.17.160.76,10.64.29.0,2,unknown,0,2014-11-15 18:00:40.380,8,2014-11-15 17:52:35.410,3
2014-11-15 18:00:43.851,16597,553.2333,40.10477,-88.22198,233.8673,0,63.98438,4,10,1416096043,0.5038605,1.018356,-0.2029266,47.41956,21.78136,-15.80569,230.4998,233.5821,10,0.1142094,0.3147127,0.03307406,1.168852,1.109335,-1.081617,0.01081248,0.6485117,0.06011122,0.03917913,-0.08331081,-0.0384842,172.17.160.76,10.64.29.0,2,unknown,0,2014-11-15 18:00:40.380,8,2014-11-15 17:52:35.410,3
2014-11-15 18:00:43.885,16598,553.2667,40.10477,-88.22198,233.8673,0,63.98438,4,10,1416096043,0.4199371,0.8714752,-0.2369843,47.3853,21.8158,-14.49777,232.0999,235.1822,10,0.1803277,0.3699828,0.03948642,1.165416,1.115349,-1.079975,0.1790777,0.3805799,0.04851682,0.08055765,0.1364102,0.004403512,172.17.160.76,10.64.29.0,2,unknown,0,2014-11-15 18:00:40.380,8,2014-11-15 17:52:35.410,3
2014-11-15 18:00:43.917,16599,553.3,40.10477,-88.22198,233.8673,0,63.98438,4,10,1416096043,0.4468079,0.9650879,-0.2375946,46.87143,21.9191,-13.25693,233.5835,236.6658,10,-0.06414942,0.00421898,-0.2905836,1.149051,1.11852,-1.076017,0.1209332,0.2858031,-0.1215854,-0.1164567,-0.05980657,0.01395312,172.17.160.76,10.64.29.0,2,unknown,0,2014-11-15 18:00:40.380,8,2014-11-15 17:52:35.410,3
2014-11-15 18:00:43.951,16600,553.3334,40.10477,-88.22198,233.8673,0,63.98438,4,10,1416096043,0.3637848,0.9245758,-0.3258362,47.04272,22.0224,-11.81479,235.7167,238.799,10,0.3945175,0.4983792,-0.252547,1.134542,1.110409,-1.084307,0.1970826,0.1856087,-0.2996657,0.08464769,0.1063767,-0.05566259,172.17.160.76,10.64.29.0,2,unknown,0,2014-11-15 18:00:40.380,8,2014-11-15 17:52:35.410,3
2014-11-15 18:00:43.984,16601,553.3667,40.10477,-88.22198,233.8673,0,63.98438,4,10,1416096043,0.3877258,0.873642,-0.1737518,46.87143,22.1257,-11.37881,236.7083,239.7906,10,0.2948516,0.3022475,-0.4824868,1.09209,1.092575,-1.086986,0.4010877,0.5007235,-0.3486601,-0.0921561,-0.002599535,-0.05529856,172.17.160.76,10.64.29.0,2,unknown,0,2014-11-15 18:00:40.380,8,2014-11-15 17:52:35.410,3
2014-11-15 18:00:44.018,16602,553.4,40.10477,-88.22198,233.8673,0,63.98438,4,10,1416096043,0.2908325,1.027786,-0.2288055,46.22053,22.64216,-10.00381,239.7333,242.8156,10,0.4152169,0.01605993,-0.5226579,1.05339,1.065419,-1.095339,0.4258841,0.05927554,-0.552761,0.05098401,0.02664239,0.04091711,172.17.160.76,10.64.29.0,2,unknown,0,2014-11-15 18:00:40.380,8,2014-11-15 17:52:35.410,3
2014-11-15 18:00:44.051,16603,553.4333,40.10477,-88.22198,233.8673,0,63.98438,4,10,1416096043,0.3267212,0.8468628,-0.1896515,45.46685,22.77988,-9.467255,242.0368,245.1191,10,0.2586156,0.06429936,-0.8997051,0.9959261,1.018418,-1.107145,0.3018692,0.1373945,-0.7694892,-0.1222376,0.00744517,0.07377209,172.17.160.76,10.64.29.0,2,unknown,0,2014-11-15 18:00:40.380,8,2014-11-15 17:52:35.410,3
2014-11-15 18:00:44.084,16604,553.4667,40.10477,-88.22198,233.8673,0,63.98438,4,10,1416096043,0.423172,0.8941498,-0.3912354,44.81595,22.74546,-9.165436,243.2279,246.3102,10,0.4022521,-0.2768036,-0.8935473,0.9611637,0.9891236,-1.118549,0.3918161,0.01499058,-0.9328774,0.07988442,-0.02844995,0.003854327,172.17.160.76,10.64.29.0,2,unknown,0,2014-11-15 18:00:40.380,8,2014-11-15 17:52:35.410,3
2014-11-15 18:00:44.117,16605,553.5,40.10477,-88.22197,233.6251,0.2,31.99219,4,10,1416096044,0.2754974,0.9196472,-0.134491,43.65118,23.15865,-9.031158,245.7245,248.8069,10,0.402312,-0.2056253,-0.8952956,0.8783521,0.906545,-1.135751,0.4968646,-0.1956894,-0.8239862,0.008337414,0.05791661,0.03443996,172.17.160.76,10.64.29.0,2,unknown,0,2014-11-15 18:00:40.380,8,2014-11-15 17:52:35.410,3
2014-11-15 18:00:44.152,16606,553.5334,40.10477,-88.22197,233.6251,0.2,31.99219,4,10,1416096044,0.2353058,0.8870392,-0.3250275,41.86975,23.64068,-9.165314,247.0408,250.1231,10,0.2614428,-0.6720125,-1.317571,0.7819592,0.8099756,-1.153489,0.4157183,-0.4598931,-1.202961,-0.1165449,0.07489105,0.0241662,172.17.160.76,10.64.29.0,2,unknown,0,2014-11-15 18:00:40.380,8,2014-11-15 17:52:35.410,3
2014-11-15 18:00:44.184,16607,553.5667,40.10477,-88.22197,233.6251,0.2,31.99219,4,10,1416096044,0.2513123,0.7988281,-0.3980713,41.49291,24.29488,-9.198822,249.4595,252.5418,10,0.386806,-0.2802871,-1.075021,0.7232493,0.7444442,-1.167236,0.3263564,-0.606168,-1.302115,-0.03077,-0.0326295,-0.03621404,172.17.160.76,10.64.29.0,2,unknown,0,2014-11-15 18:00:40.380,8,2014-11-15 17:52:35.410,3
2014-11-15 18:00:44.218,16608,553.6,40.10477,-88.22197,233.6251,0.2,31.99219,4,10,1416096044,0.1769257,0.9141235,-0.1462402,40.29388,25.08681,-8.829926,253.2792,256.3615,10,0.4622047,-0.2726784,-1.330019,0.6357456,0.6557382,-1.17845,0.559367,-0.04303443,-1.008114,0.01817166,-0.1251862,-0.09501518,172.17.160.76,10.64.29.0,2,unknown,0,2014-11-15 18:00:40.380,8,2014-11-15 17:52:35.410,3
2014-11-15 18:00:44.251,16609,553.6334,40.10477,-88.22197,233.6251,0.2,31.99219,4,10,1416096044,0.3469849,0.766861,-0.4399109,38.47821,26.15419,-8.192657,259.7231,262.8054,10,0.2337899,-0.8201396,-1.376629,0.4901831,0.5064958,-1.192329,0.3096885,-1.011683,-1.53453,-0.07152171,-0.04879991,0.09291223,172.17.160.76,10.64.29.0,2,unknown,0,2014-11-15 18:00:40.380,8,2014-11-15 17:52:35.410,3
2014-11-15 18:00:44.285,16610,553.6667,40.10477,-88.22197,233.6251,0.2,31.99219,4,10,1416096044,0.0602417,0.8511963,-0.1621094,37.24492,26.36077,-7.991425,262.0786,265.1609,10,0.2830293,-0.02541029,-1.241005,0.3761489,0.3763487,-1.201399,0.341392,-0.1721001,-1.228766,0.2142878,-0.1656841,-0.1041263,172.17.160.76,10.64.29.0,2,unknown,0,2014-11-15 18:00:40.380,8,2014-11-15 17:52:35.410,3
2014-11-15 18:00:44.318,16611,553.7,40.10477,-88.22197,233.6251,0.2,31.99219,4,10,1416096044,-0.07414246,0.8071594,-0.4822998,34.77834,27.39371,-7.656036,265.9484,269.0307,10,0.06506182,-1.035444,-1.334672,0.2705798,0.2770453,-1.203403,0.2721885,-0.3447586,-1.302659,-0.0380004,-0.08207055,0.183378,172.17.160.76,10.64.29.0,2,unknown,0,2014-11-15 18:00:40.380,8,2014-11-15 17:52:35.410,3
2014-11-15 18:00:44.351,16612,553.7333,40.10477,-88.22197,233.6251,0.2,31.99219,4,10,1416096044,0.30513,0.7337189,-0.1593475,32.89415,28.4611,-7.220123,269.5586,272.6409,10,0.1564067,-0.1419854,-1.349415,0.08014908,0.06149276,-1.204388,0.2629584,-0.27221,-1.405206,3.218673e-05,-0.2773856,-0.01903052,172.17.160.76,10.64.29.0,2,unknown,0,2014-11-15 18:00:40.380,8,2014-11-15 17:52:35.410,3
2014-11-15 18:00:44.384,16613,553.7667,40.10477,-88.22197,233.6251,0.2,31.99219,4,10,1416096044,-0.06414795,0.9460297,-0.3274689,31.42105,28.771,-7.186615,271.2101,274.2924,10,-0.06522933,-1.096012,-0.9194633,-0.02019162,-0.03866727,-1.200644,0.01318144,-0.5156137,-1.007497,0.316124,-0.1460022,0.3178162,172.17.160.76,10.64.29.0,2,unknown,0,2014-11-15 18:00:40.380,8,2014-11-15 17:52:35.410,3
2014-11-15 18:00:44.418,16614,553.8,40.10477,-88.22197,233.6251,0.2,31.99219,4,10,1416096044,0.3736267,0.5152283,-0.1265717,29.39983,29.14975,-7.220123,273.807,276.8893,10,-0.08504193,-0.2092329,-0.8404156,-0.09046948,-0.1334251,-1.197552,0.02956455,-0.7087604,-0.8334309,-0.03047186,-0.09768379,0.03104432,172.17.160.76,10.64.29.0,2,unknown,0,2014-11-15 18:00:40.380,8,2014-11-15 17:52:35.410,3
2014-11-15 18:00:44.451,16615,553.8334,40.10477,-88.22197,233.6251,0.2,31.99219,4,10,1416096044,0.06692505,0.8546906,-0.2374573,28.30357,29.49407,-7.085968,274.9031,277.9854,10,-0.2115216,-0.462957,0.02913711,-0.1453808,-0.1843952,-1.196762,-0.1768811,0.1468878,-0.3844527,0.4406186,-0.4156328,0.2326077,172.17.160.76,10.64.29.0,2,unknown,0,2014-11-15 18:00:40.380,8,2014-11-15 17:52:35.410,3
2014-11-15 18:00:44.485,16616,553.8667,40.10477,-88.22197,233.6251,0.2,31.99219,4,10,1416096044,0.1134644,0.5635376,-0.1467438,27.7897,30.07941,-7.454803,275.832,278.9143,10,-0.1376359,0.1211818,-0.2843851,-0.1516469,-0.1985892,-1.200959,-0.07385024,-0.3541773,-0.03400369,0.138237,-0.07769553,0.1169024,172.17.160.76,10.64.29.0,2,unknown,0,2014-11-15 18:00:40.380,8,2014-11-15 17:52:35.410,3
2014-11-15 18:00:44.518,16617,553.9,40.10477,-88.22197,233.6251,0.2,31.99219,4,10,1416096044,0.1014099,0.7222443,-0.3151703,27.65266,30.42372,-7.588959,276.7517,279.834,10,-0.100378,0.585464,-0.148333,-0.1802826,-0.2213816,-1.200732,-0.003286241,0.2238827,-0.3082708,0.1928802,-0.3687666,0.2061047,172.17.160.76,10.64.29.0,2,unknown,0,2014-11-15 18:00:40.380,8,2014-11-15 17:52:35.410,3
2014-11-15 18:00:44.551,16618,553.9333,40.10477,-88.22197,233.6251,0.2,31.99219,4,10,1416096044,-0.07722473,0.7747192,-0.2594299,28.20079,30.286,-7.723114,277.0462,280.1285,10,-0.06786214,0.5420646,0.01690788,-0.1929791,-0.215802,-1.200331,-0.0197953,0.7915511,0.007917464,0.1789359,-0.2099147,0.03848125,172.17.160.76,10.64.29.0,2,unknown,0,2014-11-15 18:00:40.380,8,2014-11-15 17:52:35.410,3
2014-11-15 18:00:44.584,16619,553.9667,40.10477,-88.22197,233.6251,0.2,31.99219,4,10,1416096044,0.1100769,0.8246918,-0.2626343,27.99524,30.49259,-7.387787,278.9116,281.9939,10,-0.1029927,0.2161912,-0.08233295,-0.1922827,-0.2046668,-1.200584,-0.008483644,0.03565178,-0.04705666,0.0001557541,-0.1935421,0.08811806,172.17.160.76,10.64.29.0,2,unknown,0,2014-11-15 18:00:40.380,8,2014-11-15 17:52:35.410,3
2014-11-15 18:00:44.618,16620,554,40.10477,-88.22197,233.6251,0.2,31.99219,4,10,1416096044,-0.1618652,0.892746,-0.3450317,28.13228,30.35487,-6.985321,279.6369,282.7192,10,-0.170001,0.1610169,0.2063505,-0.1880971,-0.1854029,-1.203915,-0.08264267,0.3831824,0.2405896,0.1737604,-0.07987373,0.06746382,172.17.160.76,10.64.29.0,2,unknown,0,2014-11-15 18:00:40.380,8,2014-11-15 17:52:35.410,3
2014-11-15 18:00:44.651,16621,554.0334,40.10477,-88.22197,233.6251,0.2,31.99219,4,10,1416096044,0.1356964,0.8466187,-0.2674408,28.13228,30.49259,-7.186493,279.5211,282.6034,15,-0.2539891,-0.1152494,0.05978717,-0.1763757,-0.1703286,-1.20861,-0.1688113,-0.02071514,0.07743999,-0.0924523,-0.06200138,-0.07814579,172.17.160.76,10.64.29.0,2,unknown,0,2014-11-15 18:00:40.380,8,2014-11-15 17:52:35.410,3
2014-11-15 18:00:44.684,16622,554.0667,40.10477,-88.22197,233.6251,0.2,31.99219,4,10,1416096044,-0.06121826,0.8687286,-0.3009491,28.0295,30.52702,-7.28714,279.2357,282.3181,15,-0.3155489,-0.1111044,0.3243485,-0.1669181,-0.163461,-1.215725,-0.2493944,-0.08085237,0.2706147,0.2233543,-0.1321864,0.2062436,172.17.160.76,10.64.29.0,2,unknown,0,2014-11-15 18:00:40.380,8,2014-11-15 17:52:35.410,3
2014-11-15 18:00:44.718,16623,554.1,40.10477,-88.22197,233.6251,0.2,31.99219,4,10,1416096044,0.09339905,0.858902,-0.236618,28.4406,31.35338,-7.756622,278.397,281.4793,15,-0.4331339,0.03240534,0.4667217,-0.1254942,-0.1236889,-1.231227,-0.4118456,0.1374288,0.4623776,0.01400914,-0.04114943,0.01702965,172.17.160.76,10.64.29.0,2,unknown,0,2014-11-15 18:00:40.380,8,2014-11-15 17:52:35.410,3
2014-11-15 18:00:44.752,16624,554.1334,40.10477,-88.22197,233.6251,0.2,31.99219,4,10,1416096044,0.1696014,0.7441101,-0.1896057,28.71466,31.1468,-8.024872,276.7102,279.7925,15,-0.5525079,0.1468499,0.841413,-0.0816815,-0.07886378,-1.243847,-0.397311,0.1554293,0.5961646,0.2238639,-0.1908466,0.172315,172.17.160.76,10.64.29.0,2,unknown,0,2014-11-15 18:00:40.380,8,2014-11-15 17:52:35.410,3
2014-11-15 18:00:44.784,16625,554.1667,40.10477,-88.22197,233.6251,0.2,31.99219,4,10,1416096044,-0.1304779,0.8322754,-0.3459778,29.43408,31.11236,-8.125519,275.774,278.8563,15,-0.5515361,-0.1701653,0.7919732,-0.03442439,-0.03033029,-1.254055,-0.4876021,0.2126864,0.8568673,0.179047,-0.2061454,0.1217226,172.17.160.76,10.64.29.0,2,unknown,0,2014-11-15 18:00:40.380,8,2014-11-15 17:52:35.410,3
2014-11-15 18:00:44.818,16626,554.2,40.10477,-88.22197,233.6251,0.2,31.99219,4,10,1416096044,0.1392822,0.6515961,-0.24617,30.77015,30.80247,-8.427399,273.2242,276.3065,15,-0.4607628,0.2866366,0.5021313,0.06712913,0.06544202,-1.272199,-0.4026876,0.02672863,0.5785231,-0.1497159,-0.1234745,-0.05242716,172.17.160.76,10.64.29.0,2,unknown,0,2014-11-15 18:00:40.380,8,2014-11-15 17:52:35.410,3
2014-11-15 18:00:44.851,16627,554.2333,40.10477,-88.22197,233.6251,0.2,31.99219,4,10,1416096044,0.01295471,1.057999,-0.3154755,31.31827,31.00906,-8.36026,272.2464,275.3287,15,-0.4267519,0.388014,0.5619808,0.1249094,0.1304507,-1.28229,-0.3925589,0.5544927,0.5356206,0.1022714,-0.3070737,0.03593352,172.17.160.76,10.64.29.0,2,unknown,0,2014-11-15 18:00:40.380,8,2014-11-15 17:52:35.410,3
2014-11-15 18:00:44.885,16628,554.2667,40.10477,-88.22197,233.6251,0.2,31.99219,4,10,1416096044,0.02793884,0.6336517,-0.2518311,32.38027,30.56145,-8.393768,271.0989,274.1812,15,-0.2697793,0.3010501,0.4526639,0.229695,0.241289,-1.289937,-0.1582246,0.1279682,0.4921606,-0.2279921,0.06329127,-0.1205731,172.17.160.76,10.64.29.0,2,unknown,0,2014-11-15 18:00:40.380,8,2014-11-15 17:52:35.410,3
2014-11-15 18:00:44.918,16629,554.3,40.10477,-88.22197,233.6251,0.2,31.99219,4,10,1416096044,0.3683777,0.8499451,0.02105713,32.6886,30.1827,-8.494354,268.5902,271.6725,15,-0.3859024,0.3408394,0.7908595,0.2914761,0.3155375,-1.292831,-0.3352537,0.6063078,0.6492729,0.1497247,-0.3617621,0.1692086,172.17.160.76,10.64.29.0,2,unknown,0,2014-11-15 18:00:40.380,8,2014-11-15 17:52:35.410,3
2014-11-15 18:00:44.951,16630,554.3334,40.10477,-88.22197,233.6251,0.2,31.99219,4,10,1416096044,-0.1594086,0.817749,-0.3342896,33.30524,29.9761,-8.628571,267.7321,270.8145,15,-0.03577744,-0.2832661,0.4794936,0.3721559,0.3995446,-1.290623,-0.005188319,-0.2040472,0.5790192,-0.1475143,0.6491762,0.004849571,172.17.160.76,10.64.29.0,2,unknown,0,2014-11-15 18:00:40.380,8,2014-11-15 17:52:35.410,3
2014-11-15 18:00:44.984,16631,554.3667,40.10477,-88.22197,233.6251,0.2,31.99219,4,10,1416096044,0.3380127,0.4747009,-0.1381683,34.70982,29.73508,-8.66214,265.9113,268.9936,15,-0.4154294,0.3017218,0.674001,0.4252112,0.4495848,-1.286545,-0.2659516,0.2602559,0.5580265,-0.2337234,-0.5947595,-0.1226729,172.17.160.76,10.64.29.0,2,unknown,0,2014-11-15 18:00:40.380,8,2014-11-15 17:52:35.410,3
2014-11-15 18:00:45.018,16632,554.4,40.10477,-88.22197,233.6251,0.2,31.99219,4,10,1416096044,-0.001464844,1.438202,-0.222702,36.18291,29.42519,-8.360321,263.1194,266.2017,15,0.0660693,0.1352438,0.7498711,0.5070488,0.5412529,-1.282728,-0.1142,0.3875397,0.8203144,0.170172,-0.0767449,-0.02867861,172.17.160.76,10.64.29.0,2,unknown,0,2014-11-15 18:00:40.380,8,2014-11-15 17:52:35.410,3
2014-11-15 18:00:45.052,16633,554.4333,40.10477,-88.22197,233.6251,0.2,31.99219,4,10,1416096044,0.05526733,0.3110809,-0.2863312,37.5875,29.1153,-9.198822,260.1377,263.22,15,-0.314824,-0.4030167,0.3631449,0.5487722,0.5855234,-1.268499,0.1907662,-0.02320007,0.3372196,-0.1659921,0.4835467,0.02541946,172.17.160.76,10.64.29.0,2,unknown,0,2014-11-15 18:00:40.380,8,2014-11-15 17:52:35.410,3
2014-11-15 18:00:45.084,16634,554.4667,40.10477,-88.22197,233.6251,0.2,31.99219,4,10,1416096044,0.2667389,1.182053,-0.141098,38.13563,28.63326,-9.601288,259.2254,262.3077,15,-0.394248,-0.1141974,0.6144115,0.5891652,0.6155084,-1.266496,-0.3908443,-0.2321866,0.4869043,-0.1177285,-0.642976,-0.04169308,172.17.160.76,10.64.29.0,2,unknown,0,2014-11-15 18:00:40.380,8,2014-11-15 17:52:35.410,3
2014-11-15 18:00:45.118,16635,554.5,40.10477,-88.22197,233.8535,0.19,351.9141,4,10,1416096045,0.01638794,0.6417236,-0.3989105,39.19763,27.70361,-10.57382,256.1018,259.1841,15,-0.0702249,-0.1945892,0.2593013,0.6556687,0.6734062,-1.254966,0.2461159,-0.1614147,0.3299154,0.07221989,0.5952835,0.2319525,172.17.160.76,10.64.29.0,2,unknown,0,2014-11-15 18:00:40.380,8,2014-11-15 17:52:35.410,3
2014-11-15 18:00:45.151,16636,554.5334,40.10477,-88.22197,233.8535,0.19,351.9141,4,10,1416096045,0.2829285,1.182541,-0.07817078,39.98556,26.84283,-11.34518,254.6342,257.7165,15,-0.2056762,-0.199156,0.6323647,0.6761684,0.6889728,-1.248763,-0.1443744,-0.02523917,0.4690258,-0.184823,-0.3068701,-0.1546071,172.17.160.76,10.64.29.0,2,unknown,0,2014-11-15 18:00:40.380,8,2014-11-15 17:52:35.410,3
2014-11-15 18:00:45.185,16637,554.5667,40.10477,-88.22197,233.8535,0.19,351.9141,4,10,1416096045,0.109024,1.115784,-0.1781006,40.63647,26.32635,-11.647,253.8014,256.8837,15,-0.01366761,-0.3459302,0.2020341,0.7366652,0.7375582,-1.229723,0.2302502,-0.1808861,0.2831668,0.2753451,0.5224476,0.2897117,172.17.160.76,10.64.29.0,2,unknown,0,2014-11-15 18:00:40.380,8,2014-11-15 17:52:35.410,3
2014-11-15 18:00:45.218,16638,554.6,40.10477,-88.22197,233.8535,0.19,351.9141,4,10,1416096045,0.04376221,0.6493225,-0.3622589,41.18459,26.18864,-13.32388,250.7394,253.8217,15,-0.5295438,-0.6615692,0.4443215,0.7592107,0.7474666,-1.225246,-0.262989,-0.5386812,0.431737,-0.2821018,-0.1557024,-0.1661634,172.17.160.76,10.64.29.0,2,unknown,0,2014-11-15 18:00:40.380,8,2014-11-15 17:52:35.410,3
2014-11-15 18:00:45.251,16639,554.6334,40.10477,-88.22197,233.8535,0.19,351.9141,4,10,1416096045,0.4707947,1.568512,0.01890564,41.59569,26.39522,-13.92746,250.5859,253.6682,15,-0.2237492,-0.6820707,0.1394847,0.8130088,0.7791501,-1.226913,-0.3330756,-0.6724064,0.3071018,0.06032208,0.03338578,0.2125849,172.17.160.76,10.64.29.0,2,unknown,0,2014-11-15 18:00:40.380,8,2014-11-15 17:52:35.410,3
2014-11-15 18:00:45.284,16640,554.6667,40.10477,-88.22197,233.8535,0.19,351.9141,4,10,1416096045,-0.1111908,0.8262329,-0.582901,41.52718,26.46408,-15.67142,248.017,251.0993,15,-0.531462,-0.6796717,0.01539467,0.8301351,0.7790073,-1.229727,-0.2956641,-0.5145847,-0.03931192,-0.03766537,0.5704351,0.05718328,172.17.160.76,10.64.29.0,2,unknown,0,2014-11-15 18:00:40.380,8,2014-11-15 17:52:35.410,3
2014-11-15 18:00:45.318,16641,554.7,40.10477,-88.22197,233.8535,0.19,351.9141,4,10,1416096045,0.5622711,1.281998,-0.06221008,41.97253,26.42966,-16.64395,246.0817,249.164,15,-0.7134582,-0.5009443,0.3152938,0.8789859,0.8074573,-1.239607,-0.7946123,-0.5456631,0.3179891,-0.3337602,-0.4944843,-0.4448614,172.17.160.76,10.64.29.0,2,unknown,0,2014-11-15 18:00:40.380,8,2014-11-15 17:52:35.410,3
2014-11-15 18:00:45.351,16642,554.7333,40.10477,-88.22197,233.8535,0.19,351.9141,4,10,1416096045,-0.1368866,0.6330719,-0.5891113,41.83549,26.29193,-17.18057,243.3161,246.3985,15,-0.4158619,-0.324781,0.3044923,0.9389591,0.8482157,-1.241111,-0.1449863,-0.4053811,0.2207618,0.3381213,0.6352614,0.1246683,172.17.160.76,10.64.29.0,2,unknown,0,2014-11-15 18:00:40.380,8,2014-11-15 17:52:35.410,3
2014-11-15 18:00:45.384,16643,554.7667,40.10477,-88.22197,233.8535,0.19,351.9141,4,10,1416096045,0.3273468,0.9958344,-0.1842957,42.34937,26.11979,-18.68979,239.9738,243.0561,15,-0.5397674,-0.1484552,0.4300781,0.9613371,0.8626344,-1.240312,-0.3509213,-0.2589671,0.3199602,-0.2706473,0.1935799,-0.3009866,172.17.160.76,10.64.29.0,2,unknown,0,2014-11-15 18:00:40.380,8,2014-11-15 17:52:35.410,3
2014-11-15 18:00:45.418,16644,554.8,40.10477,-88.22197,233.8535,0.19,351.9141,4,10,1416096045,0.2665863,1.269867,-0.2456665,42.55491,26.53297,-20.43369,236.4973,239.5796,15,-0.07665244,-0.4744976,0.1984084,1.029589,0.9174563,-1.237456,-0.1881576,-0.5967326,0.3472935,0.06752969,0.05087982,0.01459125,172.17.160.76,10.64.29.0,2,unknown,0,2014-11-15 18:00:40.380,8,2014-11-15 17:52:35.410,3
2014-11-15 18:00:45.452,16645,554.8334,40.10477,-88.22197,233.8535,0.19,351.9141,4,10,1416096045,0.1690521,0.8429108,-0.201416,42.45214,26.63625,-21.54037,235.1221,238.2045,15,-0.3208816,-0.1739071,0.309177,1.047176,0.9206706,-1.232702,-0.1332383,-0.1882659,0.2685661,0.00255866,0.3264785,-0.04489913,172.17.160.76,10.64.29.0,2,unknown,0,2014-11-15 18:00:40.380,8,2014-11-15 17:52:35.410,3
2014-11-15 18:00:45.485,16646,554.8667,40.10477,-88.22197,233.8535,0.19,351.9141,4,10,1416096045,0.4562073,1.306396,-0.08079529,43.06879,27.32489,-23.35147,234.4769,237.5592,15,-0.2382099,-0.4479474,0.04523832,1.088085,0.9546522,-1.230664,-0.3827982,-0.2837038,0.2785512,-0.3320947,-0.3517376,-0.299182,172.17.160.76,10.64.29.0,2,unknown,0,2014-11-15 18:00:40.380,8,2014-11-15 17:52:35.410,3
2014-11-15 18:00:45.518,16647,554.9,40.10477,-88.22197,233.8535,0.19,351.9141,4,10,1416096045,0.1160431,0.8642731,-0.3372192,43.03453,27.63477,-25.26309,232.4025,235.4848,15,-0.3374521,-0.3358693,0.1067046,1.116429,0.96365,-1.23287,-0.1957337,-0.2392804,0.1220467,-0.182619,-0.05916699,-0.2669076,172.17.160.76,10.64.29.0,2,unknown,0,2014-11-15 18:00:40.380,8,2014-11-15 17:52:35.410,3
2014-11-15 18:00:45.551,16648,554.9333,40.10477,-88.22197,233.8535,0.19,351.9141,4,10,1416096045,0.5266571,1.231949,-0.1449127,43.27433,28.01353,-25.96738,232.9138,235.9961,15,-0.1538071,-0.5314876,-0.03725176,1.14175,0.9772552,-1.235168,-0.2265461,-0.4290235,0.03942866,0.05916924,0.06218979,-0.004935644,172.17.160.76,10.64.29.0,2,unknown,0,2014-11-15 18:00:40.380,8,2014-11-15 17:52:35.410,3
2014-11-15 18:00:45.584,16649,554.9667,40.10477,-88.22197,233.8535,0.19,351.9141,4,10,1416096045,0.1543121,0.9297943,-0.3178711,42.38363,28.22012,-28.04666,230.4292,233.5115,15,-0.0759925,-0.5080853,-0.02892805,1.143183,0.9646419,-1.237051,0.007167491,-0.5064069,-0.06269487,0.1008635,0.2333853,-0.0531484,172.17.160.76,10.64.29.0,2,unknown,0,2014-11-15 18:00:40.380,8,2014-11-15 17:52:35.410,3
2014-11-15 18:00:45.618,16650,555,40.10477,-88.22197,233.8535,0.19,351.9141,4,10,1416096045,0.4706421,1.050522,-0.1643219,42.55492,28.04797,-28.75089,229.6924,232.7747,15,-0.1384053,-0.4209046,-0.1672894,1.147463,0.9537212,-1.239992,-0.1109767,-0.3524548,-0.08585597,-0.07698954,0.03508399,-0.08565704,172.17.160.76,10.64.29.0,2,unknown,0,2014-11-15 18:00:40.380,8,2014-11-15 17:52:35.410,3
2014-11-15 18:00:45.651,16651,555.0334,40.10477,-88.22197,233.8535,0.19,351.9141,4,10,1416096045,0.3304291,1.152222,-0.2403412,41.90401,27.73808,-29.99179,228.5531,231.6354,15,0.08127169,-0.3008845,-0.1600496,1.144122,0.944021,-1.242722,0.05128996,-0.2700606,-0.1401653,0.2096683,0.1038572,0.02467202,172.17.160.76,10.64.29.0,2,unknown,0,2014-11-15 18:00:40.380,8,2014-11-15 17:52:35.410,3
2014-11-15 18:00:45.684,16652,555.0667,40.10477,-88.22197,233.8535,0.19,351.9141,4,10,1416096045,0.2901917,1.059601,-0.1856537,41.62995,27.73808,-30.79672,226.3179,229.4002,15,0.03994289,-0.3078705,-0.2437887,1.115895,0.910381,-1.244766,0.12842,-0.05385609,-0.2093735,-0.02479156,0.04643787,-0.02372247,172.17.160.76,10.64.29.0,2,unknown,0,2014-11-15 18:00:40.380,8,2014-11-15 17:52:35.410,3
2014-11-15 18:00:45.718,16653,555.1,40.10477,-88.22197,233.8535,0.19,351.9141,4,10,1416096045,0.3806152,0.9977417,-0.1889801,41.04756,28.11684,-32.03769,225.2627,228.345,15,0.07506226,-0.4227129,-0.2530168,1.10247,0.8944713,-1.24694,0.1048792,-0.2420609,-0.2283217,-0.01801338,0.02857789,-0.04133717,172.17.160.76,10.64.29.0,2,unknown,0,2014-11-15 18:00:40.380,8,2014-11-15 17:52:35.410,3
2014-11-15 18:00:45.752,16654,555.1334,40.10477,-88.22197,233.8535,0.19,351.9141,4,10,1416096045,0.2636566,0.9592438,-0.1981964,40.87627,27.94468,-32.74197,224.8891,227.9714,15,0.1134214,-0.1756973,-0.1839248,1.069087,0.8516314,-1.249907,0.2146713,-0.1047531,-0.1897966,0.1433142,0.0487864,0.01879871,172.17.160.76,10.64.29.0,2,unknown,0,2014-11-15 18:00:40.380,8,2014-11-15 17:52:35.410,3
2014-11-15 18:00:45.784,16655,555.1667,40.10477,-88.22197,233.8535,0.19,351.9141,4,10,1416096045,0.2923279,1.072632,-0.1446533,40.49944,27.49706,-34.04996,224.4313,227.5136,15,0.1325386,-0.4714855,-0.2354437,1.02734,0.7994105,-1.250395,0.1899298,-0.5310923,-0.2248551,0.104507,0.125781,0.08338962,172.17.160.76,10.64.29.0,2,unknown,0,2014-11-15 18:00:40.380,8,2014-11-15 17:52:35.410,3
2014-11-15 18:00:45.820,16656,555.2,40.10477,-88.22197,233.8535,0.19,351.9141,4,10,1416096045,0.190155,0.9151154,-0.3100739,40.05408,27.11832,-34.62009,224.0095,227.0918,15,0.103695,-0.04867566,-0.1078543,1.000308,0.764997,-1.250455,0.1847757,-0.06630188,-0.1650683,0.08424971,0.02058331,0.04780533,172.17.160.76,10.64.29.0,2,unknown,0,2014-11-15 18:00:40.380,8,2014-11-15 17:52:35.410,3
2014-11-15 18:00:45.851,16657,555.2333,40.10477,-88.22197,233.8535,0.19,351.9141,4,10,1416096045,0.3511047,1.172256,-0.2041168,39.84853,27.18718,-34.82126,224.6132,227.6955,15,0.09933165,-0.1591441,-0.1031123,0.9827279,0.7481155,-1.248992,0.1547417,-0.07221556,-0.1055441,0.0075813,-0.002056867,-0.02441748,172.17.160.76,10.64.29.0,2,unknown,0,2014-11-15 18:00:40.380,8,2014-11-15 17:52:35.410,3
2014-11-15 18:00:45.884,16658,555.2667,40.10477,-88.22197,233.8535,0.19,351.9141,4,10,1416096045,0.2901154,1.124908,-0.3519287,39.78001,27.25604,-34.75418,224.676,227.7583,15,0.1291894,-0.05910673,-0.08040616,0.9771068,0.7418125,-1.248442,0.1642659,-0.09333669,-0.08764583,0.07243003,0.1162967,0.02179825,172.17.160.76,10.64.29.0,2,unknown,0,2014-11-15 18:00:40.380,8,2014-11-15 17:52:35.410,3
2014-11-15 18:00:45.917,16659,555.3,40.10477,-88.22197,233.8535,0.19,351.9141,4,10,1416096045,0.3769836,1.220932,-0.2171173,39.78001,26.91173,-35.2908,224.7021,227.7844,15,0.05843695,0.0494336,0.07752968,0.9581959,0.7299909,-1.24107,0.1245369,0.1246478,0.07394952,-0.02495609,0.08139599,-0.05343038,172.17.160.76,10.64.29.0,2,unknown,0,2014-11-15 18:00:40.380,8,2014-11-15 17:52:35.410,3
2014-11-15 18:00:45.951,16660,555.3334,40.10477,-88.22197,233.8535,0.19,351.9141,4,10,1416096045,0.3119202,1.156097,-0.2863159,39.64298,26.774,-35.08963,224.737,227.8193,15,0.02308428,0.1307921,0.1555787,0.9572536,0.7312131,-1.237966,0.1287115,0.08654362,0.09390135,0.1588092,0.2758107,0.02608119,172.17.160.76,10.64.29.0,2,unknown,0,2014-11-15 18:00:40.380,8,2014-11-15 17:52:35.410,3
2014-11-15 18:00:45.985,16661,555.3667,40.10477,-88.22197,233.8535,0.19,351.9141,4,10,1416096045,0.2504883,1.063156,-0.3553009,39.74576,26.46412,-34.45242,225.1987,228.281,10,-0.002931874,0.3288322,0.3488472,0.967793,0.7497716,-1.229836,0.06538099,0.3548694,0.3057248,0.0125231,0.1547494,-0.08581243,172.17.160.76,10.64.29.0,2,unknown,0,2014-11-15 18:00:40.380,8,2014-11-15 17:52:35.410,3
2014-11-15 18:00:46.018,16662,555.4,40.10477,-88.22197,233.8535,0.19,351.9141,4,10,1416096045,0.3540802,1.137589,-0.2088013,40.01982,26.1198,-32.57431,225.8787,228.961,10,0.09165455,0.2965153,0.4374873,0.9865847,0.7793073,-1.220972,0.08856235,0.3981203,0.4067065,0.009620168,0.1237232,-0.1114806,172.17.160.76,10.64.29.0,2,unknown,0,2014-11-15 18:00:40.380,8,2014-11-15 17:52:35.410,3
2014-11-15 18:00:46.051,16663,555.4333,40.10477,-88.22197,233.8535,0.19,351.9141,4,10,1416096045,0.1665955,1.022369,-0.3567657,40.53369,26.08536,-31.73581,226.8826,229.9649,10,0.1373946,0.3584908,0.4864706,1.004675,0.8070812,-1.208457,0.1960314,0.3410851,0.4590777,0.09806173,0.2025184,0.03634864,172.17.160.76,10.64.29.0,2,unknown,0,2014-11-15 18:00:40.380,8,2014-11-15 17:52:35.410,3
2014-11-15 18:00:46.085,16664,555.4667,40.10477,-88.22197,233.8535,0.19,351.9141,4,10,1416096045,0.3293762,0.9890747,-0.1977997,41.45866,25.56889,-29.4888,227.8106,230.8929,10,0.0202355,0.5786517,0.5071753,1.030627,0.8522551,-1.188484,0.1075196,0.6360925,0.543758,-0.07747823,-0.01941836,-0.06682351,172.17.160.76,10.64.29.0,2,unknown,0,2014-11-15 18:00:40.380,8,2014-11-15 17:52:35.410,3
2014-11-15 18:00:46.119,16665,555.5,40.10477,-88.22197,233.5997,0,315.3516,4,10,1416096046,0.1775208,0.8942413,-0.3748322,42.24659,24.98355,-28.38211,229.1078,232.1901,10,-0.02652828,0.6028033,0.4660798,1.051052,0.8904464,-1.175429,0.07258681,0.6546532,0.4664983,0.06251264,0.1195949,0.03091802,172.17.160.76,10.64.29.0,2,unknown,0,2014-11-15 18:00:40.380,8,2014-11-15 17:52:35.410,3
2014-11-15 18:00:46.151,16666,555.5334,40.10477,-88.22197,233.5997,0,315.3516,4,10,1416096046,0.332489,0.9170532,-0.2893372,43.44563,24.6048,-26.00095,230.6859,233.7682,10,-0.08714768,0.8909744,0.4911769,1.082886,0.9496007,-1.159308,-0.04262605,0.8752759,0.5487641,-0.2044484,-0.06508601,-0.1668244,172.17.160.76,10.64.29.0,2,unknown,0,2014-11-15 18:00:40.380,8,2014-11-15 17:52:35.410,3
2014-11-15 18:00:46.184,16667,555.5667,40.10477,-88.22197,233.5997,0,315.3516,4,10,1416096046,0.3102417,0.9689178,-0.2779999,44.78169,23.81288,-23.35153,232.4341,235.5164,10,-0.01562956,0.7278254,0.4189307,1.103137,0.9967296,-1.147259,0.03442574,0.9277281,0.4638331,0.01399446,0.03608236,-0.08603208,172.17.160.76,10.64.29.0,2,unknown,0,2014-11-15 18:00:40.380,8,2014-11-15 17:52:35.410,3
2014-11-15 18:00:46.218,16668,555.6,40.10477,-88.22197,233.5997,0,315.3516,4,10,1416096046,0.246933,0.8398438,-0.3106689,45.80943,22.98652,-20.80264,233.4938,236.5761,10,-0.1085776,0.5591019,0.4428043,1.116465,1.030314,-1.135218,0.05025411,0.6353605,0.4431275,-0.05155097,0.0622918,-0.06089324,172.17.160.76,10.64.29.0,2,unknown,0,2014-11-15 18:00:40.380,8,2014-11-15 17:52:35.410,3
2014-11-15 18:00:46.251,16669,555.6334,40.10477,-88.22197,233.5997,0,315.3516,4,10,1416096046,0.4681396,0.98526,-0.2031097,46.56311,22.36674,-19.46115,234.5004,237.5827,10,0.01530945,0.5201553,0.3582782,1.13857,1.07607,-1.119446,0.04281998,0.7247182,0.4563636,-0.02311908,-0.02609477,-0.05308281,172.17.160.76,10.64.29.0,2,unknown,0,2014-11-15 18:00:40.380,8,2014-11-15 17:52:35.410,3
2014-11-15 18:00:46.284,16670,555.6667,40.10477,-88.22197,233.5997,0,315.3516,4,10,1416096046,0.1975861,0.8452301,-0.2884979,46.97421,22.0913,-17.85135,234.9977,238.08,10,-0.1521384,0.129721,0.2846685,1.14389,1.094485,-1.111366,0.08027414,0.5859459,0.3737583,0.07406002,0.08895479,0.0002082544,172.17.160.76,10.64.29.0,2,unknown,0,2014-11-15 18:00:40.380,8,2014-11-15 17:52:35.410,3
2014-11-15 18:00:46.317,16671,555.7,40.10477,-88.22197,233.5997,0,315.3516,4,10,1416096046,0.5498657,0.937912,-0.1370087,47.24827,22.02244,-16.577,235.3986,238.4809,10,-0.2074163,0.445541,0.3130756,1.163959,1.123909,-1.10146,-0.203328,0.3136217,0.3150046,-0.1573899,-0.07500441,-0.03698853,172.17.160.76,10.64.29.0,2,unknown,0,2014-11-15 18:00:40.380,8,2014-11-15 17:52:35.410,3
2014-11-15 18:00:46.351,16672,555.7333,40.10477,-88.22197,233.5997,0,315.3516,4,10,1416096046,0.272522,0.7944031,-0.3309326,47.31679,22.02244,-15.9733,235.7736,238.8559,10,-0.2690994,0.1023996,0.1766914,1.182258,1.153249,-1.09527,-0.1785668,0.3587816,0.2461533,0.1313908,0.04886024,0.04864087,172.17.160.76,10.64.29.0,2,unknown,0,2014-11-15 18:00:40.380,8,2014-11-15 17:52:35.410,3
2014-11-15 18:00:46.384,16673,555.7667,40.10477,-88.22197,233.5997,0,315.3516,4,10,1416096046,0.4807434,0.9273376,-0.1214905,47.28253,21.78142,-14.66531,234.9993,238.0816,10,-0.2103173,0.3596317,0.1926866,1.208351,1.181979,-1.092636,-0.2456463,0.2478886,0.1906233,-0.06302297,-0.1590373,-0.1959224,172.17.160.76,10.64.29.0,2,unknown,0,2014-11-15 18:00:40.380,8,2014-11-15 17:52:35.410,3
2014-11-15 18:00:46.418,16674,555.8,40.10477,-88.22197,233.5997,0,315.3516,4,10,1416096046,0.3646393,0.8248291,-0.1781158,47.41956,21.78142,-14.19577,237.3991,240.4814,10,-0.1555158,-0.1088349,-0.07004859,1.217423,1.204179,-1.088328,-0.0308504,0.09744288,-0.02008531,0.05258321,0.1041685,0.1276629,172.17.160.76,10.64.29.0,2,unknown,0,2014-11-15 18:00:40.380,8,2014-11-15 17:52:35.410,3
2014-11-15 18:00:46.451,16675,555.8334,40.10477,-88.22197,233.5997,0,315.3516,4,10,1416096046,0.4931641,0.8301086,-0.2798615,47.1455,21.57483,-13.45798,237.5505,240.6328,10,-0.1606144,0.02898638,-0.111763,1.223507,1.208311,-1.091694,-0.1735754,-0.05610793,-0.1010322,-0.183209,-0.07951745,-0.120731,172.17.160.76,10.64.29.0,2,unknown,0,2014-11-15 18:00:40.380,8,2014-11-15 17:52:35.410,3
2014-11-15 18:00:46.484,16676,555.8667,40.10477,-88.22197,233.5997,0,315.3516,4,10,1416096046,0.4767303,0.9276276,-0.1886597,47.17975,21.60925,-12.61954,238.3251,241.4074,10,0.2343691,0.2403588,-0.2384453,1.2195,1.213504,-1.094226,0.2267564,0.5161144,-0.1419773,0.03529349,0.02065197,-0.02968713,172.17.160.76,10.64.29.0,2,unknown,0,2014-11-15 18:00:40.380,8,2014-11-15 17:52:35.410,3
2014-11-15 18:00:46.518,16677,555.9,40.10477,-88.22197,233.5997,0,315.3516,4,10,1416096046,0.4134064,0.8183746,-0.3328552,46.90569,21.47153,-11.88174,239.2258,242.3081,10,0.2637539,-0.097036,-0.1702743,1.195076,1.196586,-1.098092,0.3108823,-0.07987156,-0.2632554,0.05294263,0.03728727,-0.02223214,172.17.160.76,10.64.29.0,2,unknown,0,2014-11-15 18:00:40.380,8,2014-11-15 17:52:35.410,3
2014-11-15 18:00:46.551,16678,555.9333,40.10477,-88.22197,233.5997,0,315.3516,4,10,1416096046,0.4807129,0.9826202,0.01570129,46.59737,21.57483,-10.57376,241.2784,244.3607,10,0.4285277,0.08342832,-0.3238558,1.155105,1.174256,-1.093682,0.6041188,0.8428147,-0.05250569,0.1146857,-0.01538387,0.04630551,172.17.160.76,10.64.29.0,2,unknown,0,2014-11-15 18:00:40.380,8,2014-11-15 17:52:35.410,3
2014-11-15 18:00:46.584,16679,555.9667,40.10477,-88.22197,233.5997,0,315.3516,4,10,1416096046,0.5733337,0.944519,1.898956,46.22053,21.12722,-9.668243,243.4306,246.5129,10,0.2897748,-0.01616326,-0.2941392,1.129198,1.16019,-1.09385,0.4934885,0.149215,-0.3083767,-0.07993756,0.08460647,0.2411668,172.17.160.76,10.64.29.0,2,unknown,0,2014-11-15 18:00:40.380,8,2014-11-15 17:52:35.410,3
2014-11-15 18:00:46.618,16680,556,40.10477,-88.22197,233.5997,0,315.3516,4,10,1416096046,0.1807861,1.012207,-0.4689331,45.94646,20.9895,-9.534088,243.617,246.6993,10,0.5658874,0.2290803,-0.5868507,1.08072,1.122868,-1.098933,0.1070931,0.4476238,-0.7787794,0.16363,0.05379599,2.09582,172.17.160.76,10.64.29.0,2,unknown,0,2014-11-15 18:00:40.380,8,2014-11-15 17:52:35.410,3
2014-11-15 18:00:46.651,16681,556.0334,40.10477,-88.22197,233.5997,0,315.3516,4,10,1416096046,0.2679749,0.66185,-0.6323853,45.53536,21.12724,-9.064545,246.0158,249.0981,10,0.3388318,-0.5841995,-0.7983336,1.024838,1.088591,-1.111468,0.4392283,-0.4115481,-0.8408061,-0.2120072,0.1158566,-0.2633381,172.17.160.76,10.64.29.0,2,unknown,0,2014-11-15 18:00:40.380,8,2014-11-15 17:52:35.410,3
2014-11-15 18:00:46.685,16682,556.0667,40.10477,-88.22197,233.5997,0,315.3516,4,10,1416096046,0.4040527,1.189713,0.09040833,44.98724,21.33383,-8.729095,246.5079,249.5902,10,0.1585721,-0.148451,-0.6552484,0.9766757,1.027463,-1.126893,0.3106962,-0.4908841,-0.6602908,-0.09964565,-0.2412321,-0.4103537,172.17.160.76,10.64.29.0,2,unknown,0,2014-11-15 18:00:40.380,8,2014-11-15 17:52:35.410,3
2014-11-15 18:00:46.718,16683,556.1,40.10477,-88.22197,233.5997,0,315.3516,4,10,1416096046,0.4501343,0.8508148,-0.6967468,44.57614,22.50452,-8.05838,250.6082,253.6906,10,0.2738491,-0.4959232,-0.7912566,0.9046029,0.9617522,-1.153188,0.2625882,-0.2227812,-0.9007169,0.04556876,-0.1522056,0.03129361,172.17.160.76,10.64.29.0,2,unknown,0,2014-11-15 18:00:40.380,8,2014-11-15 17:52:35.410,3
2014-11-15 18:00:46.751,16684,556.1334,40.10477,-88.22197,233.5997,0,315.3516,4,10,1416096046,0.1839905,0.8197937,-0.2368317,43.51414,23.22758,-8.159027,251.8176,254.8999,10,0.8573064,-0.1206774,-0.4507296,0.8462505,0.8958198,-1.159873,0.7687213,-0.2868231,-0.4836641,0.1427258,0.1292682,-0.3308631,172.17.160.76,10.64.29.0,2,unknown,0,2014-11-15 18:00:40.380,8,2014-11-15 17:52:35.410,3
2014-11-15 18:00:46.784,16685,556.1667,40.10477,-88.22197,233.5997,0,315.3516,4,10,1416096046,0.4255219,1.189667,-0.1690826,42.4864,23.50302,-8.561554,254.3813,257.4636,10,0.6879798,-0.2807259,-0.5496562,0.7730088,0.8292747,-1.152793,0.8415944,0.08373245,-0.5159532,-0.1010818,-0.1876898,0.1013376,172.17.160.76,10.64.29.0,2,unknown,0,2014-11-15 18:00:40.380,8,2014-11-15 17:52:35.410,3
2014-11-15 18:00:46.818,16686,556.2,40.10477,-88.22197,233.5997,0,315.3516,4,10,1416096046,0.06317139,0.8186798,-0.2934875,41.62995,23.53746,-8.528046,254.541,257.6234,10,0.6410154,-0.5658711,-0.6029946,0.7283512,0.7829149,-1.150573,0.6782435,-0.4776872,-0.577741,0.01876122,0.1196103,0.06770875,172.17.160.76,10.64.29.0,2,unknown,0,2014-11-15 18:00:40.380,8,2014-11-15 17:52:35.410,3
2014-11-15 18:00:46.852,16687,556.2333,40.10477,-88.22197,233.5997,0,315.3516,4,10,1416096046,0.268219,1.118271,-0.2614288,40.97905,23.70962,-8.561554,257.5994,260.6817,10,0.2320394,-0.3888593,-0.686511,0.6269521,0.6717741,-1.149666,0.2586814,-0.1794942,-0.6552724,-0.1564609,-0.1771996,0.04326648,172.17.160.76,10.64.29.0,2,unknown,0,2014-11-15 18:00:40.380,8,2014-11-15 17:52:35.410,3
2014-11-15 18:00:46.884,16688,556.2667,40.10477,-88.22197,233.5997,0,315.3516,4,10,1416096046,0.1206512,0.8455963,-0.5159454,40.1226,24.15723,-8.393829,259.8512,262.9335,10,0.3374957,-0.1896224,-0.6083685,0.5748582,0.6153198,-1.154891,0.3502202,-0.4027506,-0.6652828,0.0350118,0.2035199,0.06848781,172.17.160.76,10.64.29.0,2,unknown,0,2014-11-15 18:00:40.380,8,2014-11-15 17:52:35.410,3
2014-11-15 18:00:46.918,16689,556.3,40.10477,-88.22197,233.5997,0,315.3516,4,10,1416096046,0.1855927,0.838562,-0.2718506,39.84853,24.43269,-8.729218,260.4811,263.5634,10,0.3685778,0.1208095,-0.5845591,0.5208699,0.5609502,-1.155219,0.3983174,0.1079922,-0.566164,-0.09412304,-0.06928721,-0.1740973,172.17.160.76,10.64.29.0,2,unknown,0,2014-11-15 18:00:40.380,8,2014-11-15 17:52:35.410,3
2014-11-15 18:00:46.951,16690,556.3334,40.10477,-88.22197,233.5997,0,315.3516,4,10,1416096046,0.1470795,0.9430084,-0.3681488,39.02634,24.9836,-8.796295,264.218,267.3003,10,0.3544417,-0.4480508,-0.6373914,0.4684364,0.5178003,-1.152951,0.456857,-0.02487866,-0.569206,-0.01526242,-0.07540324,0.08074657,172.17.160.76,10.64.29.0,2,unknown,0,2014-11-15 18:00:40.380,8,2014-11-15 17:52:35.410,3
2014-11-15 18:00:46.984,16691,556.3667,40.10477,-88.22197,233.5997,0,315.3516,4,10,1416096046,0.05458069,0.7727509,-0.4485626,37.9986,25.19019,-9.131683,266.2343,269.3166,10,0.3200281,-0.07999817,-0.4442576,0.3981936,0.4422026,-1.148969,0.3872723,-0.1720988,-0.5102779,-0.005209101,-0.09381495,0.03584817,172.17.160.76,10.64.29.0,2,unknown,0,2014-11-15 18:00:40.380,8,2014-11-15 17:52:35.410,3
2014-11-15 18:00:47.018,16692,556.4,40.10477,-88.22197,233.5997,0,315.3516,4,10,1416096046,0.09140015,0.8629456,-0.3152313,37.79305,25.53452,-8.930389,267.3241,270.4064,10,0.245311,-0.4672431,-0.511829,0.3469577,0.3906087,-1.142828,0.3230267,-0.3544753,-0.4632311,-0.1160895,-0.05418953,-0.04110321,172.17.160.76,10.64.29.0,2,unknown,0,2014-11-15 18:00:40.380,8,2014-11-15 17:52:35.410,3
2014-11-15 18:00:47.051,16693,556.4333,40.10477,-88.22197,233.5997,0,315.3516,4,10,1416096046,0.04618835,0.8313904,-0.3546448,37.21066,25.50009,-8.762726,268.2502,271.3325,10,0.1589039,-0.2690448,-0.4425268,0.3061823,0.3426871,-1.140251,0.2239871,-0.2578093,-0.4729661,-0.07687351,-0.07089324,0.0814231,172.17.160.76,10.64.29.0,2,unknown,0,2014-11-15 18:00:40.380,8,2014-11-15 17:52:35.410,3
2014-11-15 18:00:47.084,16694,556.4667,40.10477,-88.22197,233.5997,0,315.3516,4,10,1416096046,0.1420135,0.7115021,-0.3756714,37.03937,25.80997,-8.66214,269.4784,272.5607,15,0.1631761,0.1163178,-0.3471031,0.2722736,0.3088263,-1.137481,0.2602057,0.07226568,-0.3800762,-0.02924577,-0.05177432,0.02242366,172.17.160.76,10.64.29.0,2,unknown,0,2014-11-15 18:00:40.380,8,2014-11-15 17:52:35.410,3
2014-11-15 18:00:47.118,16695,556.5,40.10477,-88.22198,233.6479,0.37,260.5078,4,10,1416096047,0.1704712,0.8382568,-0.4011383,36.28569,25.74111,-9.198761,269.7027,272.785,15,0.02458897,-0.4867076,-0.1470166,0.2446723,0.2840576,-1.135656,0.05031325,-0.3692091,-0.1788721,-0.0438422,-0.1629905,0.01438659,172.17.160.76,10.64.29.0,2,unknown,0,2014-11-15 18:00:40.380,8,2014-11-15 17:52:35.410,3
2014-11-15 18:00:47.151,16696,556.5334,40.10477,-88.22198,233.6479,0.37,260.5078,4,10,1416096047,0.1302643,0.7324829,-0.3071747,35.53201,26.1543,-9.265839,270.6352,273.7175,15,0.0009182579,0.1909321,0.09759686,0.2389674,0.2720968,-1.134427,0.1096722,-0.1788898,-0.01780846,0.05688272,-0.06803513,0.005964311,172.17.160.76,10.64.29.0,2,unknown,0,2014-11-15 18:00:40.380,8,2014-11-15 17:52:35.410,3
2014-11-15 18:00:47.184,16697,556.5667,40.10477,-88.22198,233.6479,0.37,260.5078,4,10,1416096047,0.05325317,0.9192657,-0.379364,35.53201,26.08543,-9.131683,270.5252,273.6075,15,-0.1975123,-0.3393112,0.3641026,0.2491556,0.2864798,-1.132696,-0.1457335,-0.08673214,0.2107902,0.01038939,-0.1730763,0.09975588,172.17.160.76,10.64.29.0,2,unknown,0,2014-11-15 18:00:40.380,8,2014-11-15 17:52:35.410,3
2014-11-15 18:00:47.218,16698,556.6,40.10477,-88.22198,233.6479,0.37,260.5078,4,10,1416096047,0.1067505,0.8359375,-0.4504089,35.66904,26.08543,-8.863373,270.5856,273.6679,15,-0.3300807,-0.320741,0.1407241,0.2748377,0.3025125,-1.134127,-0.1428672,-0.1827837,0.2962537,-0.07274404,0.01310041,0.02435506,172.17.160.76,10.64.29.0,2,unknown,0,2014-11-15 18:00:40.380,8,2014-11-15 17:52:35.410,3
2014-11-15 18:00:47.251,16699,556.6334,40.10477,-88.22198,233.6479,0.37,260.5078,4,10,1416096047,0.2639923,0.8175507,-0.3893433,35.42924,26.18874,-8.42746,270.8582,273.9405,15,-0.2782151,-0.1633423,0.3037655,0.2925602,0.3119115,-1.139196,-0.2598358,-0.3346455,0.1589607,-0.1631192,-0.04819004,-0.05506111,172.17.160.76,10.64.29.0,2,unknown,0,2014-11-15 18:00:40.380,8,2014-11-15 17:52:35.410,3
2014-11-15 18:00:47.285,16700,556.6667,40.10477,-88.22198,233.6479,0.37,260.5078,4,10,1416096047,0.02073669,1.03804,-0.3152924,35.97736,26.11986,-8.494476,270.131,273.2133,15,-0.2688043,-0.284252,0.3338765,0.3432339,0.3530241,-1.143728,-0.2254026,-0.06239022,0.4755254,-0.03036685,0.06575274,0.02434166,172.17.160.76,10.64.29.0,2,unknown,0,2014-11-15 18:00:40.380,8,2014-11-15 17:52:35.410,3
2014-11-15 18:00:47.318,16701,556.7,40.10477,-88.22198,233.6479,0.37,260.5078,4,10,1416096047,0.2888031,0.7335052,-0.5181885,36.21717,26.42974,-8.192657,270.058,273.1404,15,-0.2847092,-0.6214076,-0.13383,0.3594294,0.3620125,-1.145636,-0.2064737,-0.4636394,0.1060687,-0.278387,0.1668014,0.04352435,172.17.160.76,10.64.29.0,2,unknown,0,2014-11-15 18:00:40.380,8,2014-11-15 17:52:35.410,3
2014-11-15 18:00:47.351,16702,556.7333,40.10477,-88.22198,233.6479,0.37,260.5078,4,10,1416096047,0.1936951,0.9008484,-0.4295654,36.45698,26.18872,-7.957855,269.5539,272.6362,15,-0.1565553,0.1482028,0.3399794,0.3637927,0.3520572,-1.15358,-0.1400707,0.1626067,0.1632533,0.3082215,-0.158468,-0.02652775,172.17.160.76,10.64.29.0,2,unknown,0,2014-11-15 18:00:40.380,8,2014-11-15 17:52:35.410,3
2014-11-15 18:00:47.385,16703,556.7667,40.10477,-88.22198,233.6479,0.37,260.5078,4,10,1416096047,0.01400757,0.9294281,-0.4268188,36.01163,26.15428,-8.192596,269.1579,272.2402,15,-0.1082261,-0.3573318,0.09299546,0.3898949,0.3793033,-1.151782,-0.03830102,-0.06596804,0.2943538,-0.0539242,0.06162268,-0.05086033,172.17.160.76,10.64.29.0,2,unknown,0,2014-11-15 18:00:40.380,8,2014-11-15 17:52:35.410,3
2014-11-15 18:00:47.418,16704,556.8,40.10477,-88.22198,233.6479,0.37,260.5078,4,10,1416096047,0.3818665,0.7590027,-0.377533,35.56628,25.63782,-8.226166,268.5811,271.6634,15,-0.1515943,-0.3134477,-0.008513327,0.3903793,0.367633,-1.153515,-0.07034743,-0.5986267,-0.1732604,-0.1316518,0.01523386,-0.04862281,172.17.160.76,10.64.29.0,2,unknown,0,2014-11-15 18:00:40.380,8,2014-11-15 17:52:35.410,3
2014-11-15 18:00:47.451,16705,556.8334,40.10477,-88.22198,233.6479,0.37,260.5078,4,10,1416096047,0.1562805,0.974884,-0.2738647,35.84034,25.77554,-9.031036,267.3333,270.4156,15,-0.1983682,0.09345565,0.4045981,0.3913839,0.3594981,-1.15608,-0.1039375,0.04789043,0.1710055,0.2401138,-0.156228,-0.0003605623,172.17.160.76,10.64.29.0,2,unknown,0,2014-11-15 18:00:40.380,8,2014-11-15 17:52:35.410,3
2014-11-15 18:00:47.485,16706,556.8667,40.10477,-88.22198,233.6479,0.37,260.5078,4,10,1416096047,-0.05317688,0.9595337,-0.4745026,35.84034,25.70668,-9.031036,267.1616,270.2439,15,-0.2705002,-0.1852692,0.2144566,0.4099541,0.3788764,-1.155732,-0.133387,0.159222,0.4200888,0.1087518,-0.06970779,0.005830333,172.17.160.76,10.64.29.0,2,unknown,0,2014-11-15 18:00:40.380,8,2014-11-15 17:52:35.410,3
2014-11-15 18:00:47.518,16707,556.9,40.10477,-88.22198,233.6479,0.37,260.5078,4,10,1416096047,0.3266602,0.7719269,-0.3412933,35.56627,26.18871,-8.96402,266.4464,269.5287,15,-0.188694,0.2673105,0.06898759,0.4343442,0.3875108,-1.16285,-0.200553,-0.4885478,-0.09682826,-0.08759961,-0.0007621186,-0.1101842,172.17.160.76,10.64.29.0,2,unknown,0,2014-11-15 18:00:40.380,8,2014-11-15 17:52:35.410,3
2014-11-15 18:00:47.551,16708,556.9333,40.10477,-88.22198,233.6479,0.37,260.5078,4,10,1416096047,0.1644287,1.157211,-0.2160797,35.63479,26.11983,-9.031036,266.5508,269.6331,15,-0.1869294,0.4641144,0.2409159,0.4424665,0.4005043,-1.166269,-0.1216792,0.5866929,0.1813393,0.1732084,-0.1473616,0.02114455,172.17.160.76,10.64.29.0,2,unknown,0,2014-11-15 18:00:40.380,8,2014-11-15 17:52:35.410,3
2014-11-15 18:00:47.584,16709,556.9667,40.10477,-88.22198,233.6479,0.37,260.5078,4,10,1416096047,0.1971588,0.9344025,-0.2793121,36.04588,25.84439,-8.762726,266.4034,269.4857,15,-0.2106036,-0.7750502,-0.3546433,0.4642459,0.4254525,-1.169349,-0.1474131,-0.5254309,-0.05263945,-0.07678788,0.2247672,0.1112264,172.17.160.76,10.64.29.0,2,unknown,0,2014-11-15 18:00:40.380,8,2014-11-15 17:52:35.410,3
2014-11-15 18:00:47.618,16710,557,40.10477,-88.22198,233.6479,0.37,260.5078,4,10,1416096047,0.4160004,0.814621,-0.4380188,35.80608,25.46564,-9.332855,265.0939,268.1762,15,-0.318272,0.1458714,-0.121172,0.4413863,0.3833707,-1.180168,-0.2273846,-0.09578848,-0.291034,0.1791069,-0.09784198,-0.03722123,172.17.160.76,10.64.29.0,2,unknown,0,2014-11-15 18:00:40.380,8,2014-11-15 17:52:35.410,3
2014-11-15 18:00:47.651,16711,557.0334,40.10477,-88.22198,233.6479,0.37,260.5078,4,10,1416096047,0.1500549,1.092972,-0.4386902,35.77182,25.50008,-9.567719,264.5899,267.6722,15,-0.1870508,0.1365216,0.1977935,0.4400797,0.3836268,-1.182994,-0.253293,0.2116355,-0.1056818,0.3026912,-0.12223,0.003530147,172.17.160.76,10.64.29.0,2,unknown,0,2014-11-15 18:00:40.380,8,2014-11-15 17:52:35.410,3
2014-11-15 18:00:47.684,16712,557.0667,40.10477,-88.22198,233.6479,0.37,260.5078,4,10,1416096047,0.2318115,0.6702118,-0.3678131,35.49776,26.05099,-10.17136,263.1579,266.2402,15,-0.1668654,-0.4334098,-0.2776428,0.4583097,0.4012735,-1.185359,-0.03004592,-0.4033157,-0.05562064,-0.2681098,0.2247024,-0.07243419,172.17.160.76,10.64.29.0,2,unknown,0,2014-11-15 18:00:40.380,8,2014-11-15 17:52:35.410,3
2014-11-15 18:00:47.718,16713,557.1,40.10477,-88.22198,233.6479,0.37,260.5078,4,10,1416096047,0.2604218,0.9650879,-0.3706055,35.63479,26.3953,-9.970062,263.4278,266.5101,15,-0.126208,0.132569,-0.1824657,0.4400525,0.3791708,-1.191258,-0.08334967,0.1114416,-0.2777446,0.09467386,-0.2586239,-0.02363662,172.17.160.76,10.64.29.0,2,unknown,0,2014-11-15 18:00:40.380,8,2014-11-15 17:52:35.410,3
2014-11-15 18:00:47.751,16714,557.1334,40.10477,-88.22198,233.6479,0.37,260.5078,4,10,1416096047,0.01846313,0.8920593,-0.3113861,34.98389,26.4986,-9.869415,264.3838,267.4661,15,-0.03978177,-0.5724263,-0.3871219,0.4317881,0.3753122,-1.194322,-0.05514799,0.02771304,-0.1063311,0.1256569,0.03512146,-0.02855158,172.17.160.76,10.64.29.0,2,unknown,0,2014-11-15 18:00:40.380,8,2014-11-15 17:52:35.410,3
2014-11-15 18:00:47.784,16715,557.1667,40.10477,-88.22198,233.6479,0.37,260.5078,4,10,1416096047,0.2921295,0.7953186,-0.3591461,34.64131,26.70517,-9.802277,264.6177,267.7,15,-0.09071872,0.1307138,-0.2855721,0.3927637,0.3226602,-1.200212,-0.04992951,-0.3930637,-0.5299749,-0.09637435,-0.04005668,0.03208458,172.17.160.76,10.64.29.0,2,unknown,0,2014-11-15 18:00:40.380,8,2014-11-15 17:52:35.410,3
2014-11-15 18:00:47.818,16716,557.2,40.10477,-88.22198,233.6479,0.37,260.5078,4,10,1416096047,0.1076813,0.9691467,-0.3067627,34.47002,26.9462,-9.96994,265.3384,268.4207,15,-0.03480139,0.2865125,-0.0524965,0.3686462,0.3027694,-1.203902,0.01022451,0.3483295,-0.1388552,0.1851723,-0.1381271,-0.01674407,172.17.160.76,10.64.29.0,2,unknown,0,2014-11-15 18:00:40.380,8,2014-11-15 17:52:35.410,3
2014-11-15 18:00:47.851,16717,557.2333,40.10477,-88.22198,233.6479,0.37,260.5078,4,10,1416096047,0.02285767,0.903244,-0.269104,34.36724,27.04949,-9.936432,265.539,268.6213,15,-0.1106381,-0.03991599,-0.08683743,0.3631017,0.3075242,-1.203866,-0.01468609,0.1906929,-0.04936617,-0.0009127246,0.03571355,0.03515812,172.17.160.76,10.64.29.0,2,automotive,0,2014-11-15 18:00:47.801,8,2014-11-15 17:52:35.410,3
2014-11-15 18:00:47.884,16718,557.2667,40.10477,-88.22198,233.6479,0.37,260.5078,4,10,1416096047,0.1121674,0.8470459,-0.4715118,34.19595,26.67075,-9.768768,265.3391,268.4214,15,-0.06524425,0.1192681,-0.2517603,0.3547854,0.2998746,-1.206069,-0.03033068,0.008851824,-0.210549,-0.08250993,-0.03097719,0.07167219,172.17.160.76,10.64.29.0,2,automotive,0,2014-11-15 18:00:47.801,8,2014-11-15 17:52:35.410,3
2014-11-15 18:00:47.917,16719,557.3,40.10477,-88.22198,233.6479,0.37,260.5078,4,10,1416096047,0.1224365,0.9455414,-0.2346497,33.64783,26.87735,-9.96994,265.5193,268.6016,15,-0.0202552,0.008526909,0.002243713,0.3292979,0.2857949,-1.209274,0.02368476,0.1906886,-0.04738716,0.1212019,-0.0725816,0.02218299,172.17.160.76,10.64.29.0,2,automotive,0,2014-11-15 18:00:47.801,8,2014-11-15 17:52:35.410,3
2014-11-15 18:00:47.950,16720,557.3334,40.10477,-88.22198,233.6479,0.37,260.5078,4,10,1416096047,0.1053162,0.9537201,-0.3644562,33.57931,27.15279,-10.37241,264.9934,268.0757,15,-0.02686251,-0.07185209,0.05173483,0.3299664,0.2879854,-1.207593,0.05636071,0.005357778,0.03750839,0.007021224,0.06232182,0.07489215,172.17.160.76,10.64.29.0,2,automotive,0,2014-11-15 18:00:47.801,8,2014-11-15 17:52:35.410,3
2014-11-15 18:00:47.984,16721,557.3667,40.10477,-88.22198,233.6479,0.37,260.5078,4,10,1416096047,0.05090332,0.8215179,-0.3302155,34.26447,27.56597,-10.84195,264.5223,267.6046,15,-0.003496997,-0.02693095,0.09222021,0.3335931,0.2917327,-1.20628,0.05404697,0.06223571,0.1121202,0.002783088,0.01942388,-0.02302162,172.17.160.76,10.64.29.0,2,automotive,0,2014-11-15 18:00:47.801,8,2014-11-15 17:52:35.410,3
2014-11-15 18:00:48.019,16722,557.4,40.10477,-88.22198,233.6479,0.37,260.5078,4,10,1416096047,0.1000214,0.9946594,-0.3738098,34.26447,27.49711,-10.77493,264.3432,267.4255,15,0.1042329,-0.1378468,0.04452752,0.3405474,0.292911,-1.203413,0.04656077,-0.2709226,0.03502852,-0.02314194,-0.04986263,0.001317003,172.17.160.76,10.64.29.0,2,automotive,0,2014-11-15 18:00:47.801,8,2014-11-15 17:52:35.410,3
2014-11-15 18:00:48.051,16723,557.4333,40.10477,-88.22198,233.6479,0.37,260.5078,4,10,1416096047,0.07206726,0.8292084,-0.3602905,33.9904,27.35938,-10.90909,264.0875,267.1698,15,0.1193064,0.06404796,0.04659573,0.3416396,0.2909163,-1.19873,0.1970183,0.09380171,0.07990642,-0.0160482,0.02971028,-0.005478908,172.17.160.76,10.64.29.0,2,automotive,0,2014-11-15 18:00:47.801,8,2014-11-15 17:52:35.410,3
2014-11-15 18:00:48.084,16724,557.4667,40.10477,-88.22198,233.6479,0.37,260.5078,4,10,1416096047,0.06866455,0.9630585,-0.3304749,33.88763,27.18724,-10.60721,264.4229,267.5052,15,0.06592176,-0.1507706,0.01912736,0.3425933,0.2948484,-1.194659,0.1843068,0.1298005,0.06209833,-0.0792634,-0.1818145,-0.02764063,172.17.160.76,10.64.29.0,2,automotive,0,2014-11-15 18:00:47.801,8,2014-11-15 17:52:35.410,3
2014-11-15 18:00:48.118,16725,557.5,40.10477,-88.22198,233.8953,0.32,249.6094,4,10,1416096048,0.1735229,0.7814026,-0.5617523,33.3395,26.77406,-10.00363,265.2588,268.3411,15,-0.1933514,0.4684399,0.2505161,0.344022,0.2948098,-1.188847,0.1244541,0.0162992,0.08401576,-0.03963505,0.03511859,0.02617451,172.17.160.76,10.64.29.0,2,automotive,0,2014-11-15 18:00:47.801,8,2014-11-15 17:52:35.410,3
2014-11-15 18:00:48.152,16726,557.5334,40.10477,-88.22198,233.8953,0.32,249.6094,4,10,1416096048,-0.002288818,0.8760529,-0.4102173,33.78486,27.15282,-9.165192,266.5321,269.6144,15,-0.09004308,0.06302584,0.1800595,0.3533393,0.3112265,-1.187604,-0.1283518,0.5341915,0.2660185,0.05903003,-0.1460732,-0.205831,172.17.160.76,10.64.29.0,2,automotive,0,2014-11-15 18:00:47.801,8,2014-11-15 17:52:35.410,3
2014-11-15 18:00:48.184,16727,557.5667,40.10477,-88.22198,233.8953,0.32,249.6094,4,10,1416096048,0.3344116,0.8179626,-0.2015533,33.92189,27.01509,-8.96402,266.3911,269.4734,15,-0.3173633,0.2303677,-0.04748816,0.3769975,0.3396288,-1.191421,-0.158761,0.003832492,-0.03706003,-0.08890463,0.1535473,-0.2893483,172.17.160.76,10.64.29.0,2,automotive,0,2014-11-15 18:00:47.801,8,2014-11-15 17:52:35.410,3
2014-11-15 18:00:48.218,16728,557.6,40.10477,-88.22198,233.8953,0.32,249.6094,4,10,1416096048,0.120636,1.057434,-0.532547,34.8126,26.73963,-8.561554,266.3623,269.4446,15,-0.3953223,-0.1040657,0.2663028,0.3889081,0.3591092,-1.199962,-0.2553599,0.132199,0.2123643,0.2024593,-0.1828647,0.1610685,172.17.160.76,10.64.29.0,2,automotive,0,2014-11-15 18:00:47.801,8,2014-11-15 17:52:35.410,3
2014-11-15 18:00:48.251,16729,557.6334,40.10477,-88.22198,233.8953,0.32,249.6094,4,10,1416096048,0.0453949,1.020981,-0.3631592,34.94963,27.01509,-8.695648,266.1196,269.2019,15,-0.3731973,0.08341287,0.04748043,0.4187413,0.3859402,-1.206748,-0.354509,0.002379084,0.1812689,-0.1141496,0.2462315,-0.1841223,172.17.160.76,10.64.29.0,2,automotive,0,2014-11-15 18:00:47.801,8,2014-11-15 17:52:35.410,3
2014-11-15 18:00:48.284,16730,557.6667,40.10477,-88.22198,233.8953,0.32,249.6094,4,10,1416096048,0.2021637,0.8809967,-0.4861298,35.18944,26.98067,-8.863312,264.8831,267.9654,15,-0.487119,-0.1681429,-0.06487327,0.4308037,0.4017495,-1.215711,-0.3792903,0.1142922,-0.05688251,-0.03800311,-0.1058144,-0.02869027,172.17.160.76,10.64.29.0,2,automotive,0,2014-11-15 18:00:47.801,8,2014-11-15 17:52:35.410,3
2014-11-15 18:00:48.319,16731,557.7,40.10477,-88.22198,233.8953,0.32,249.6094,4,10,1416096048,0.02632141,0.8079224,-0.3526917,35.12092,27.46271,-9.332794,263.6928,266.7751,15,-0.2989558,-0.1280576,-0.2330809,0.4412271,0.4047321,-1.227934,-0.3966825,-0.3607383,-0.06674934,0.1346792,0.1034003,-0.08088471,172.17.160.76,10.64.29.0,2,automotive,0,2014-11-15 18:00:47.801,8,2014-11-15 17:52:35.410,3
2014-11-15 18:00:48.351,16732,557.7333,40.10477,-88.22198,233.8953,0.32,249.6094,4,10,1416096048,0.3388519,0.879715,-0.2813416,34.43576,27.53157,-9.131561,263.3514,266.4337,15,-0.4851198,-0.1534428,-0.3705102,0.4341482,0.3949011,-1.237914,-0.3016421,0.1343786,-0.3479137,-0.1882897,0.001734045,-0.06855938,172.17.160.76,10.64.29.0,2,automotive,0,2014-11-15 18:00:47.801,8,2014-11-15 17:52:35.410,3
2014-11-15 18:00:48.385,16733,557.7667,40.10477,-88.22198,233.8953,0.32,249.6094,4,10,1416096048,0.212265,0.9226074,-0.1066132,33.81911,28.01362,-8.997406,263.6545,266.7368,15,-0.2862254,-0.3216651,-0.2617466,0.413605,0.3693483,-1.258723,-0.4526143,-0.479243,-0.2858294,0.2280107,-0.07198393,0.004985929,172.17.160.76,10.64.29.0,2,automotive,0,2014-11-15 18:00:47.801,8,2014-11-15 17:52:35.410,3
2014-11-15 18:00:48.419,16734,557.8,40.10477,-88.22198,233.8953,0.32,249.6094,4,10,1416096048,0.05982971,0.8364105,-0.1637878,33.13395,28.49566,-8.729095,264.1129,267.1953,15,0.08320061,0.1100221,-0.3415294,0.3974063,0.345655,-1.268305,-0.05241835,0.06138091,-0.2897886,0.1513719,-0.1549605,0.234839,172.17.160.76,10.64.29.0,2,automotive,0,2014-11-15 18:00:47.801,8,2014-11-15 17:52:35.410,3
2014-11-15 18:00:48.452,16735,557.8334,40.10477,-88.22198,233.8953,0.32,249.6094,4,10,1416096048,0.03915405,0.7490387,-0.5843964,32.82563,28.66782,-9.097992,263.7435,266.8258,15,0.1622339,-0.3705128,-0.5120699,0.3451923,0.2991272,-1.269011,0.08225426,-0.1599315,-0.462357,0.05314345,-0.009693082,0.2530824,172.17.160.76,10.64.29.0,2,automotive,0,2014-11-15 18:00:47.801,8,2014-11-15 17:52:35.410,3
2014-11-15 18:00:48.484,16736,557.8667,40.10477,-88.22198,233.8953,0.32,249.6094,4,10,1416096048,0.08586121,0.7854767,-0.2977295,32.58582,28.77111,-9.399811,263.75,266.8323,15,0.03150626,-0.1345663,-0.2301067,0.3022735,0.248459,-1.271789,-0.01634328,-0.2373649,-0.3095423,0.01964858,-0.009111538,0.1275363,172.17.160.76,10.64.29.0,2,automotive,0,2014-11-15 18:00:47.801,8,2014-11-15 17:52:35.410,3
2014-11-15 18:00:48.518,16737,557.9,40.10477,-88.22198,233.8953,0.32,249.6094,4,10,1416096048,0.1223907,0.9345551,-0.4038544,31.96918,28.90884,-9.466888,264.5468,267.6292,15,0.1994255,0.367537,-0.28435,0.2686984,0.2224997,-1.265603,0.2822578,0.369047,-0.1907042,-0.1446292,-0.1774218,-0.1759698,172.17.160.76,[inet_ntoa,2,automotive,0,2014-11-15 18:00:47.801,8,2014-11-15 17:52:35.410,3
2014-11-15 18:00:48.552,16738,557.9333,40.10477,-88.22198,233.8953,0.32,249.6094,4,10,1416096048,0.1035461,0.7910309,-0.3707886,31.59234,29.01214,-9.299164,265.5542,268.6365,15,0.1779476,0.02726757,-0.3189673,0.2332235,0.1987081,-1.25954,0.285788,0.1893615,-0.3466401,0.0814358,0.07629456,0.06596062,172.17.160.76,10.64.29.0,2,automotive,0,2014-11-15 18:00:47.801,8,2014-11-15 17:52:35.410,3
2014-11-15 18:00:48.584,16739,557.9667,40.10477,-88.22198,233.8953,0.32,249.6094,4,10,1416096048,0.06933594,1.077271,-0.3582458,31.72937,29.14986,-9.097931,266.4157,269.498,15,0.05198837,0.3843804,-0.1733151,0.2053739,0.1761766,-1.254943,0.1414065,0.2512717,-0.1769979,0.04910355,-0.1595009,-0.06496955,172.17.160.76,10.64.29.0,2,automotive,0,2014-11-15 18:00:47.801,8,2014-11-15 17:52:35.410,3
2014-11-15 18:00:48.618,16740,558,40.10477,-88.22198,233.8953,0.32,249.6094,4,10,1416096048,0.05267334,1.059448,-0.4763489,31.72937,28.73668,-8.762543,267.5574,270.6397,15,-0.04469583,-0.1934025,-0.4286283,0.1857625,0.1697493,-1.252954,0.05420942,0.2720557,-0.2444968,0.01654076,0.1273584,-0.05022032,172.17.160.76,10.64.29.0,2,automotive,0,2014-11-15 18:00:47.801,8,2014-11-15 17:52:35.410,3
2014-11-15 18:00:48.654,16741,558.0334,40.10477,-88.22198,233.8953,0.32,249.6094,4,10,1416096048,0.006149292,0.833313,-0.4244995,31.55808,29.11544,-8.728912,268.1017,271.184,15,0.02413064,0.5130255,-0.4474571,0.134955,0.120948,-1.253427,0.08886541,0.1546407,-0.454357,0.01502121,0.1093887,-0.1665601,172.17.160.76,10.64.29.0,2,automotive,0,2014-11-15 18:00:47.801,8,2014-11-15 17:52:35.410,3
2014-11-15 18:00:48.685,16742,558.0667,40.10477,-88.22198,233.8953,0.32,249.6094,4,10,1416096048,0.3002014,0.9590912,-0.3400116,31.42105,28.83999,-8.52774,268.9648,272.0471,15,-0.1738077,0.05394446,-0.3260016,0.106249,0.1031515,-1.252215,0.08912322,0.57877,-0.4319564,-0.05988546,-0.03249016,-0.1659233,172.17.160.76,10.64.29.0,2,automotive,0,2014-11-15 18:00:47.801,8,2014-11-15 17:52:35.410,3
2014-11-15 18:00:48.718,16743,558.1,40.10477,-88.22198,233.8953,0.32,249.6094,4,10,1416096048,-0.1174011,0.9264526,-0.3453369,30.53034,29.25317,-8.326508,270.3247,273.407,15,-0.1120016,0.3690987,-0.2375319,0.06844007,0.06868196,-1.256756,-0.1127146,-0.3608214,-0.2004996,-0.005208208,0.2049125,-0.07012071,172.17.160.76,10.64.29.0,2,automotive,0,2014-11-15 18:00:47.801,8,2014-11-15 17:52:35.410,3
2014-11-15 18:00:48.752,16744,558.1334,40.10477,-88.22198,233.8953,0.32,249.6094,4,10,1416096048,0.1143951,0.947525,-0.3112793,29.94795,29.90737,-8.024628,271.101,274.1833,15,-0.4736736,0.3422908,-0.1514002,0.04806305,0.05767836,-1.258973,-0.1256071,0.7758889,-0.2316174,-0.1350867,-0.02532327,-0.03905299,172.17.160.76,10.64.29.0,2,automotive,0,2014-11-15 18:00:47.801,8,2014-11-15 17:52:35.410,3
2014-11-15 18:00:48.785,16745,558.1667,40.10477,-88.22198,233.8953,0.32,249.6094,4,10,1416096048,-0.08389282,0.9611816,-0.4231567,29.98221,30.63043,-7.119049,272.5928,275.6751,15,-0.7038455,-0.2811579,0.01176984,0.0365523,0.05142475,-1.281615,-0.6165264,-0.4729112,-0.01875163,-0.02137206,0.1385224,-0.01426662,172.17.160.76,10.64.29.0,2,automotive,0,2014-11-15 18:00:47.801,8,2014-11-15 17:52:35.410,3
2014-11-15 18:00:48.818,16746,558.2,40.10477,-88.22198,233.8953,0.32,249.6094,4,10,1416096048,0.002914429,0.9617004,-0.1095734,30.22202,30.73373,-6.683075,272.6608,275.7431,15,-0.6679504,0.2397548,-0.09283113,0.0424473,0.05805358,-1.300065,-0.6052693,0.3549134,-0.005942715,-0.0882403,-0.09799025,-0.1520054,172.17.160.76,10.64.29.0,2,automotive,0,2014-11-15 18:00:47.801,8,2014-11-15 17:52:35.410,3
2014-11-15 18:00:48.852,16747,558.2333,40.10477,-88.22198,233.8953,0.32,249.6094,4,10,1416096048,0.01895142,1.051193,-0.3170471,30.29053,30.52714,-5.878204,272.6135,275.6958,15,-0.79392,-0.3836017,-0.1932984,0.03275524,0.05220504,-1.31599,-0.5315922,-0.1851728,-0.1831458,0.01055945,0.110428,0.3447624,172.17.160.76,10.64.29.0,2,automotive,0,2014-11-15 18:00:47.801,8,2014-11-15 17:52:35.410,3
2014-11-15 18:00:48.885,16748,558.2667,40.10477,-88.22198,233.8953,0.32,249.6094,4,10,1416096048,-0.09172058,0.7598267,-0.2629242,30.01647,30.94032,-5.945282,272.3568,275.4391,15,-0.34427,0.2272896,-0.31702,0.006967212,0.02093856,-1.333768,-0.3882767,0.02651668,-0.2834086,0.01403507,0.0791533,-0.08228302,172.17.160.76,10.64.29.0,2,automotive,0,2014-11-15 18:00:47.801,8,2014-11-15 17:52:35.410,3
2014-11-15 18:00:48.919,16749,558.3,40.10477,-88.22198,233.8953,0.32,249.6094,4,10,1416096048,0.07392883,0.9364014,-0.1318207,29.22853,31.31907,-5.844696,271.6921,274.7744,15,-0.507786,0.07189576,-0.2206312,-0.02657856,-0.002455532,-1.343144,-0.3509865,0.3044118,-0.2056582,-0.09116639,-0.2143723,-0.03723404,172.17.160.76,10.64.29.0,2,automotive,0,2014-11-15 18:00:47.801,8,2014-11-15 17:52:35.410,3
2014-11-15 18:00:48.953,16750,558.3334,40.10477,-88.22198,233.8953,0.32,249.6094,4,10,1416096048,0.07641602,0.7420807,-0.2875977,28.26931,32.00769,-5.308197,272.1076,275.1899,15,-0.4718906,0.3761651,-0.02703508,-0.06027951,-0.03298463,-1.35899,-0.3003673,-0.1157606,-0.122067,-0.04366517,0.02304911,0.08781256,172.17.160.76,10.64.29.0,2,automotive,0,2014-11-15 18:00:47.801,8,2014-11-15 17:52:35.410,3
2014-11-15 18:00:48.985,16751,558.3667,40.10477,-88.22198,233.8953,0.32,249.6094,4,10,1416096048,-0.128952,0.8614349,-0.09820557,28.30357,31.97327,-5.006317,272.2872,275.3695,15,-0.3953833,0.2319645,0.01862429,-0.06655165,-0.03461296,-1.36632,-0.406878,0.4419024,-0.01152194,0.07344843,-0.1724657,-0.1313717,172.17.160.76,10.64.29.0,2,automotive,0,2014-11-15 18:00:47.801,8,2014-11-15 17:52:35.410,3
2014-11-15 18:00:49.018,16752,558.4,40.10477,-88.22198,233.8953,0.32,249.6094,4,10,1416096048,0.01425171,0.9412994,-0.2533112,28.13228,32.14541,-4.63736,272.1248,275.2072,15,-0.4274318,0.2624849,-0.304847,-0.07059667,-0.02781223,-1.381016,-0.3951351,0.05114627,-0.1165875,-0.2102082,-0.1641135,0.0005823873,172.17.160.76,10.64.29.0,2,automotive,0,2014-11-15 18:00:47.801,8,2014-11-15 17:52:35.410,3
2014-11-15 18:00:49.052,16753,558.4333,40.10477,-88.22198,233.8953,0.32,249.6094,4,10,1416096048,0.1131134,0.7707825,-0.2124939,28.33783,31.93882,-4.36911,271.8142,274.8965,15,-0.4052945,0.5132796,-0.1581862,-0.1152962,-0.06325924,-1.392061,-0.3376387,0.5064064,-0.3309478,0.02549076,-0.04276991,-0.0758817,172.17.160.76,10.64.29.0,2,automotive,0,2014-11-15 18:00:47.801,8,2014-11-15 17:52:35.410,3
2014-11-15 18:00:49.085,16754,558.4667,40.10477,-88.22198,233.8953,0.32,249.6094,4,10,1416096048,-0.5037994,1.216812,-0.1726837,27.99524,31.93882,-4.033783,272.3679,275.4502,15,-0.325748,0.1746533,-0.1093161,-0.1492034,-0.0802754,-1.401775,-0.3525557,0.3855639,-0.01096087,0.1266026,-0.2149675,-0.04481823,172.17.160.76,10.64.29.0,2,automotive,0,2014-11-15 18:00:47.801,8,2014-11-15 17:52:35.410,3
2014-11-15 18:00:49.118,16755,558.5,40.10477,-88.22198,234.0024,0,240.8203,4,10,1416096049,0.2948151,0.7854156,-0.1681671,27.7897,32.1454,-3.832489,272.4546,275.5369,15,-0.4589263,0.7275767,-0.3479236,-0.2262132,-0.1398776,-1.413682,-0.3275043,0.6764486,-0.4670218,-0.05363958,0.01945817,-0.06219226,172.17.160.76,10.64.29.0,2,automotive,0,2014-11-15 18:00:47.801,8,2014-11-15 17:52:35.410,3
2014-11-15 18:00:49.152,16756,558.5334,40.10477,-88.22198,234.0024,0,240.8203,4,10,1416096049,-0.3790894,1.229218,-0.2185211,27.58415,32.55858,-3.631317,273.174,276.2563,15,-0.4191554,0.0762772,0.08476682,-0.2677173,-0.160272,-1.42432,-0.3698654,0.4639164,0.09248007,0.2472759,-0.09711011,0.02095939,172.17.160.76,10.64.29.0,2,automotive,0,2014-11-15 18:00:47.801,8,2014-11-15 17:52:35.410,3
2014-11-15 18:00:49.186,16757,558.5667,40.10477,-88.22198,234.0024,0,240.8203,4,10,1416096049,0.1552582,0.8968048,-0.1140137,27.54989,32.59302,-3.53067,273.2459,276.3282,15,-0.4169301,0.1915489,-0.2702309,-0.3036295,-0.1942848,-1.436726,-0.2720368,0.06472875,-0.2804457,-0.3377796,0.2063159,0.01523328,172.17.160.76,10.64.29.0,2,automotive,0,2014-11-15 18:00:47.801,8,2014-11-15 17:52:35.410,3
2014-11-15 18:00:49.221,16758,558.6,40.10477,-88.22198,234.0024,0,240.8203,4,10,1416096049,-0.4347229,1.164474,-0.1024933,27.07028,32.52415,-3.195221,273.1314,276.2137,15,-0.4486601,0.07117085,-0.03085112,-0.3465935,-0.2315958,-1.443596,-0.4973727,0.3255936,-0.0818541,0.04457494,-0.1282429,-0.0464358,172.17.160.76,10.64.29.0,2,automotive,0,2014-11-15 18:00:47.801,8,2014-11-15 17:52:35.410,3
2014-11-15 18:00:49.253,16759,558.6334,40.10477,-88.22198,234.0024,0,240.8203,4,10,1416096049,0.07614136,0.9965363,-0.203186,26.89899,32.352,-3.295868,272.8999,275.9822,15,-0.3406266,-0.2150982,-0.2238299,-0.3740037,-0.2559162,-1.4551,-0.2687351,-0.3203831,-0.05957499,-0.07659864,0.1015797,0.08659302,172.17.160.76,10.64.29.0,2,automotive,0,2014-11-15 18:00:47.801,8,2014-11-15 17:52:35.410,3
2014-11-15 18:00:49.287,16760,558.6667,40.10477,-88.22198,234.0024,0,240.8203,4,10,1416096049,-0.5857697,0.8153839,-1.130112,26.48789,32.28313,-3.698334,271.4518,274.5341,15,0.7522176,0.5052954,-0.4406709,-0.458324,-0.3383616,-1.459071,0.3233742,0.7177863,-0.2983432,0.431342,0.4034363,1.161232,172.17.160.76,10.64.29.0,2,automotive,0,2014-11-15 18:00:47.801,8,2014-11-15 17:52:35.410,3
2014-11-15 18:00:49.320,16761,558.7,40.10477,-88.22198,234.0024,0,240.8203,4,10,1416096049,0.1631317,1.577484,1.080841,26.21382,31.80109,-4.301971,270.3984,273.4807,15,0.6169045,0.09264179,-0.217303,-0.4922229,-0.3599836,-1.437686,-0.1292951,-0.4551246,-0.02365504,-0.5390187,-0.17577,-1.005901,172.17.160.76,10.64.29.0,2,automotive,0,2014-11-15 18:00:47.801,8,2014-11-15 17:52:35.410,3
2014-11-15 18:00:49.353,16762,558.7333,40.10477,-88.22198,234.0024,0,240.8203,4,10,1416096049,0.281311,0.3795471,-1.018738,26.69344,31.52565,-4.838531,270.9185,274.0008,15,-0.2764641,0.2027667,0.5232906,-0.4654183,-0.3314447,-1.414815,0.5103456,0.03852107,0.09861962,-0.3500367,-0.4341638,-0.3237016,172.17.160.76,10.64.29.0,2,automotive,0,2014-11-15 18:00:47.801,8,2014-11-15 17:52:35.410,3
2014-11-15 18:00:49.385,16763,558.7667,40.10477,-88.22198,234.0024,0,240.8203,4,10,1416096049,-0.5619202,0.61026,-0.6834106,26.76195,31.11246,-4.905609,271.7635,274.8459,15,0.7481291,-0.1716849,0.3890428,-0.3552053,-0.2094003,-1.419516,0.4272493,0.6085155,0.5785377,0.5300761,0.1226729,0.2757995,172.17.160.76,10.64.29.0,2,automotive,0,2014-11-15 18:00:47.801,8,2014-11-15 17:52:35.410,3
2014-11-15 18:00:49.418,16764,558.8,40.10477,-88.22198,234.0024,0,240.8203,4,10,1416096049,0.3182831,1.215576,0.3600616,27.41286,30.94032,-5.274506,268.7968,271.8791,15,-0.06558567,-0.3003886,0.4614699,-0.2527723,-0.1070033,-1.400569,0.2604293,-0.3557085,0.5040268,-0.5438277,-0.3752863,-0.5149732,172.17.160.76,10.64.29.0,2,automotive,0,2014-11-15 18:00:47.801,8,2014-11-15 17:52:35.410,3
2014-11-15 18:00:49.452,16765,558.8334,40.10477,-88.22198,234.0024,0,240.8203,4,10,1416096049,0.2082825,0.6641846,-0.4097137,27.54989,30.45827,-5.341644,268.3265,271.4088,15,0.1951961,0.3291326,0.401181,-0.1851296,-0.03242753,-1.385416,0.644837,0.5394572,0.16975,0.01435309,0.0817548,0.4468122,172.17.160.76,10.64.29.0,2,automotive,0,2014-11-15 18:00:47.801,8,2014-11-15 17:52:35.410,3
2014-11-15 18:00:49.485,16766,558.8667,40.10477,-88.22198,234.0024,0,240.8203,4,10,1416096049,-0.2817993,1.182938,-0.1101532,28.20079,30.42384,-5.375153,268.5111,271.5934,15,-0.2494274,0.01229209,0.3470418,-0.1425145,0.0169324,-1.383054,-0.2142464,0.3026061,0.4116145,-0.1355149,-0.4621035,-0.4601905,172.17.160.76,10.64.29.0,2,automotive,0,2014-11-15 18:00:47.801,8,2014-11-15 17:52:35.410,3
2014-11-15 18:00:49.520,16767,558.9,40.10477,-88.22198,234.0024,0,240.8203,4,10,1416096049,0.1955261,1.146347,0.08305359,28.74892,30.21726,-5.576385,267.8221,270.9044,15,-0.1264003,0.1197453,0.2314455,-0.06871963,0.08236831,-1.380836,-0.2521012,0.03729385,0.170464,-0.2667406,-0.1297169,-0.3489912,172.17.160.76,10.64.29.0,2,automotive,0,2014-11-15 18:00:47.801,8,2014-11-15 17:52:35.410,3
2014-11-15 18:00:49.550,16768,558.9333,40.10477,-88.22198,234.0024,0,240.8203,4,10,1416096049,-0.06433105,1.002975,-0.6761932,29.19428,30.0451,-5.677032,267.5399,270.6223,15,-0.1171101,0.1833128,0.3485084,-0.04571408,0.1086643,-1.384884,-0.06139515,0.1854751,0.2469569,0.101612,0.02274043,-0.1432579,172.17.160.76,10.64.29.0,2,automotive,0,2014-11-15 18:00:47.801,8,2014-11-15 17:52:35.410,3
2014-11-15 18:00:49.585,16769,558.9667,40.10477,-88.22198,234.0024,0,240.8203,4,10,1416096049,-0.06639099,0.9910736,-0.2330322,29.46834,29.76965,-6.347809,265.8185,268.9008,15,-0.02382011,-0.2024098,0.0701426,0.02978463,0.1888021,-1.386652,-0.3016459,-0.089172,0.3058531,-0.08304127,0.1794739,-0.3732639,172.17.160.76,10.64.29.0,2,automotive,0,2014-11-15 18:00:47.801,8,2014-11-15 17:52:35.410,3
2014-11-15 18:00:49.619,16770,559,40.10477,-88.22198,234.0024,0,240.8203,4,10,1416096049,0.08055115,1.003403,-0.5547638,30.01647,29.56306,-6.414825,264.8418,267.9241,15,0.06395022,0.06707171,0.02134337,0.05445817,0.2090232,-1.387358,-0.06423,0.009970701,0.08151332,-0.1042421,0.007851222,-0.05459166,172.17.160.76,10.64.29.0,2,automotive,0,2014-11-15 18:00:47.801,8,2014-11-15 17:52:35.410,3
2014-11-15 18:00:49.653,16771,559.0334,40.10477,-88.22198,234.0024,0,240.8203,4,10,1416096049,-0.0799408,1.285706,0.2205048,30.29053,30.11397,-6.01236,266.0165,269.0988,15,0.1522465,-0.2923394,-0.008478439,0.08048125,0.2374173,-1.391648,-0.4003161,-0.04133829,0.1610512,-0.1293423,-0.1542991,-0.4862002,172.17.160.76,10.64.29.0,2,automotive,0,2014-11-15 18:00:47.801,8,2014-11-15 17:52:35.410,3
2014-11-15 18:00:49.685,16772,559.0667,40.10477,-88.22198,234.0024,0,240.8203,4,10,1416096049,0.2115021,0.7622986,-0.3774414,30.18776,30.07954,-5.911774,265.9848,269.0671,15,-0.4540088,0.05525047,-0.02879197,0.08280131,0.2327371,-1.390535,-0.261289,-0.06166939,0.009692953,-0.309387,-0.07287761,-0.3837743,172.17.160.76,10.64.29.0,2,automotive,0,2014-11-15 18:00:47.801,8,2014-11-15 17:52:35.410,3
2014-11-15 18:00:49.719,16773,559.1,40.10477,-88.22198,234.0024,0,240.8203,4,10,1416096049,-0.04995728,0.8591003,-0.215744,30.25627,30.28614,-5.777557,266.4073,269.4897,15,-0.03634123,-0.1008811,0.005973737,0.09132621,0.2444489,-1.397974,0.02667478,0.07307286,0.0008322561,0.2061839,-0.01459859,0.2615776,172.17.160.76,10.64.29.0,2,automotive,0,2014-11-15 18:00:47.801,8,2014-11-15 17:52:35.410,3
2014-11-15 18:00:49.755,16774,559.1334,40.10477,-88.22198,234.0024,0,240.8203,4,10,1416096049,0.125824,0.9788055,0.03375244,30.1535,30.11398,-6.012299,265.6295,268.7118,15,-0.1209629,-0.2275842,0.1075257,0.1029909,0.2548453,-1.401621,-0.3787196,-0.06546246,0.06318663,-0.04174343,-0.2399963,-0.4072737,172.17.160.76,10.64.29.0,2,automotive,0,2014-11-15 18:00:47.801,8,2014-11-15 17:52:35.410,3
2014-11-15 18:00:49.786,16775,559.1667,40.10477,-88.22198,234.0024,0,240.8203,4,10,1416096049,0.02612305,0.7492981,-0.4822388,30.25627,29.87296,-5.911774,265.5948,268.6771,15,-0.06409883,0.1227984,0.07625189,0.1267475,0.2745937,-1.404465,0.1105479,-0.01127497,0.09348426,0.08092989,-0.007393235,0.1931152,172.17.160.76,10.64.29.0,2,automotive,0,2014-11-15 18:00:47.801,8,2014-11-15 17:52:35.410,3
2014-11-15 18:00:49.817,16776,559.2,40.10477,-88.22198,234.0024,0,240.8203,4,10,1416096049,0.005111694,0.966568,0.0836792,30.32479,29.73523,-6.113007,263.7096,266.7919,15,-0.03644589,0.09207293,0.08978581,0.1482939,0.3023992,-1.406972,-0.2336247,0.201401,0.09376992,-0.02244774,-0.2373127,-0.3265467,172.17.160.76,10.64.29.0,2,automotive,0,2014-11-15 18:00:47.801,8,2014-11-15 17:52:35.410,3
2014-11-15 18:00:49.854,16777,559.2333,40.10477,-88.22198,234.0024,0,240.8203,4,10,1416096049,0.1565094,1.127167,-0.06939697,30.70163,29.83852,-6.213654,263.0842,266.1665,15,-0.4319107,0.1645514,0.09483277,0.1724382,0.3347788,-1.406481,-0.07780984,0.376556,0.08137091,-0.04863332,-0.01996252,0.2381752,172.17.160.76,10.64.29.0,2,automotive,0,2014-11-15 18:00:47.801,8,2014-11-15 17:52:35.410,3
2014-11-15 18:00:49.888,16778,559.2667,40.10477,-88.22198,234.0024,0,240.8203,4,10,1416096049,-0.04472351,0.888092,-0.2942657,30.94144,30.01068,-6.582611,262.519,265.6013,15,-0.1484329,0.05499374,0.09744027,0.212403,0.3820093,-1.414179,-0.1750705,0.08020216,0.08866628,0.07903016,0.1755543,0.2009328,172.17.160.76,10.64.29.0,2,automotive,0,2014-11-15 18:00:47.801,8,2014-11-15 17:52:35.410,3
2014-11-15 18:00:49.919,16779,559.3,40.10477,-88.22198,234.0024,0,240.8203,4,10,1416096049,0.2170258,1.294067,0.5363159,31.31827,29.35648,-6.213654,261.3664,264.4487,15,0.007404121,0.08424538,0.04075222,0.2485193,0.4240254,-1.419295,-0.4094139,0.3215055,0.08762994,-0.01366303,-0.09711189,-0.1744397,172.17.160.76,10.64.29.0,2,automotive,0,2014-11-15 18:00:47.801,8,2014-11-15 17:52:35.410,3
2014-11-15 18:00:49.955,16780,559.3334,40.10477,-88.22198,234.0024,0,240.8203,4,10,1416096049,0.4295349,0.04096985,-0.1941376,31.07847,29.11546,-5.911896,261.1416,264.2239,15,0.4104304,-0.6442773,-0.1641519,0.2468072,0.4287824,-1.422506,0.04402596,-0.2129475,-0.1641949,-0.2936364,0.8631936,0.473606,172.17.160.76,10.64.29.0,2,automotive,0,2014-11-15 18:00:47.801,8,2014-11-15 17:52:35.410,3
2014-11-15 18:00:49.986,16781,559.3667,40.10477,-88.22198,234.0024,0,240.8203,4,10,1416096049,-0.1587372,1.337112,-0.4170685,31.00995,29.32206,-5.643585,261.7334,264.8157,15,0.08604247,0.4153866,-0.1456808,0.2157968,0.3909481,-1.41852,0.03126809,0.08505837,-0.09995047,0.3717319,-0.9474586,-0.05389466,172.17.160.76,10.64.29.0,2,automotive,0,2014-11-15 18:00:47.801,8,2014-11-15 17:52:35.410,3
2014-11-15 18:00:50.019,16782,559.4,40.10477,-88.22198,234.0024,0,240.8203,4,10,1416096049,0.2536163,0.7054291,0.304245,30.70163,29.83852,-6.146698,261.5643,264.6466,15,0.2433772,0.01825437,-0.1005945,0.2084603,0.3854924,-1.41696,-0.03806563,0.09690098,-0.08370636,0.1659245,-0.1215982,-0.004118131,172.17.160.76,10.64.29.0,2,automotive,0,2014-11-15 18:00:47.801,8,2014-11-15 17:52:35.410,3
2014-11-15 18:00:50.055,16783,559.4333,40.10477,-88.22198,234.0024,0,240.8203,4,10,1416096049,0.2016144,1.05571,0.1782379,30.83866,29.97624,-6.750336,260.7264,263.8087,15,-0.002429336,-0.1099742,0.07054926,0.2014125,0.3794456,-1.411107,-0.1657666,-0.0691455,0.1526078,-0.1459347,-0.15639,-0.5340468,172.17.160.76,10.64.29.0,2,automotive,0,2014-11-15 18:00:47.801,8,2014-11-15 17:52:35.410,3
2014-11-15 18:00:50.085,16784,559.4667,40.10477,-88.22198,234.0024,0,240.8203,4,10,1416096049,0.04096985,0.9316406,0.01296997,30.8044,29.73523,-6.985016,260.6729,263.7552,15,0.1531632,-0.1588916,0.07501645,0.2155307,0.3923232,-1.409102,0.05727516,0.01745265,0.09596997,-0.04989479,-0.1272605,-0.2222279,172.17.160.76,10.64.29.0,2,automotive,0,2014-11-15 18:00:47.801,8,2014-11-15 17:52:35.410,3
2014-11-15 18:00:50.118,16785,559.5,40.10476,-88.22198,233.9551,0.3,287.9297,4,10,1416096050,0.05438232,1.019775,-0.05670166,31.38679,29.7008,-7.286896,259.9026,262.9849,10,-0.2171579,-0.09490281,0.2242861,0.2267676,0.4024509,-1.40659,-0.1488253,0.02907602,0.2156888,-0.02305692,-0.0549078,0.1633787,172.17.160.76,10.64.29.0,2,automotive,0,2014-11-15 18:00:47.801,8,2014-11-15 17:52:35.410,3
2014-11-15 18:00:50.151,16786,559.5334,40.10476,-88.22198,233.9551,0.3,287.9297,4,10,1416096050,-0.1310883,2.520752,1.158035,32.03769,29.45979,-6.917877,261.2693,264.3517,10,-0.892788,-0.1824974,0.1202066,0.2885834,0.4642049,-1.408573,-0.1666201,-0.2107362,0.3991904,0.06790181,0.1028358,-0.009417984,172.17.160.76,10.64.29.0,2,automotive,0,2014-11-15 18:00:47.801,8,2014-11-15 17:52:35.410,3
2014-11-15 18:00:50.184,16787,559.5667,40.10476,-88.22198,233.9551,0.3,287.9297,4,10,1416096050,0.3028564,1.560715,0.8350983,32.24324,29.66637,-6.985016,260.8107,263.893,10,-0.3197799,-0.1266253,-0.04405161,0.3547006,0.5129528,-1.416882,-0.1736853,-1.02721,0.0594889,-0.2713419,-0.5237468,-1.430343,172.17.160.76,10.64.29.0,2,automotive,0,2014-11-15 18:00:47.801,8,2014-11-15 17:52:35.410,3
2014-11-15 18:00:50.218,16788,559.6,40.10476,-88.22198,233.9551,0.3,287.9297,4,10,1416096050,0.2644348,1.430573,0.7232819,31.90066,29.25318,-6.649689,259.7714,262.8537,10,-0.7285863,0.0504978,0.1696468,0.4213164,0.56841,-1.428038,-0.4218755,-0.4803902,0.132294,-0.1854259,-0.4651081,-0.8251354,172.17.160.76,10.64.29.0,2,automotive,0,2014-11-15 18:00:47.801,8,2014-11-15 17:52:35.410,3
2014-11-15 18:00:50.251,16789,559.6334,40.10476,-88.22198,233.9551,0.3,287.9297,4,10,1416096050,-0.05250549,1.069885,-0.2812195,31.55808,29.39091,-6.783844,259.4801,262.5624,10,-0.2043571,-0.1822263,0.1993642,0.5506859,0.6909333,-1.435264,0.04176968,-0.1982741,0.2328842,0.1836857,-0.01655582,0.06825554,172.17.160.76,10.64.29.0,2,automotive,0,2014-11-15 18:00:47.801,8,2014-11-15 17:52:35.410,3
2014-11-15 18:00:50.285,16790,559.6667,40.10476,-88.22198,233.9551,0.3,287.9297,4,10,1416096050,0.1582031,1.058701,-0.08943176,31.66085,28.87444,-6.951447,257.6184,260.7007,10,-0.2858357,-0.5227774,0.2647494,0.567466,0.7065586,-1.434442,-0.1393422,-0.1165072,0.2148862,0.05124605,0.0205123,-0.01242423,172.17.160.76,10.64.29.0,2,automotive,0,2014-11-15 18:00:47.801,8,2014-11-15 17:52:35.410,3
2014-11-15 18:00:50.318,16791,559.7,40.10476,-88.22198,233.9551,0.3,287.9297,4,10,1416096050,0.09701538,1.00058,-0.1427307,31.79788,29.08104,-7.085663,257.2238,260.3062,10,-0.3778663,-0.2333526,0.4545004,0.7308398,0.8439897,-1.430389,-0.1816935,-0.2774353,0.4307395,0.002321173,-0.246873,0.1014458,172.17.160.76,10.64.29.0,2,automotive,0,2014-11-15 18:00:47.801,8,2014-11-15 17:52:35.410,3
2014-11-15 18:00:50.352,16792,559.7333,40.10476,-88.22198,233.9551,0.3,287.9297,4,10,1416096050,0.1818237,1.001587,-0.03219604,32.00343,28.87444,-7.421051,255.5861,258.6684,10,-0.405711,-0.5641113,0.4125266,0.8467457,0.9519315,-1.426206,-0.3575944,-0.3327069,0.4173078,-0.02034865,0.01101477,-0.05914444,172.17.160.76,10.64.29.0,2,unknown,0,2014-11-15 18:00:50.275,8,2014-11-15 17:52:35.410,3
2014-11-15 18:00:50.384,16793,559.7667,40.10476,-88.22198,233.9551,0.3,287.9297,4,10,1416096050,0.09854126,0.8357697,-0.02328491,31.66085,29.01216,-7.890594,254.0247,257.107,10,-0.4541361,-0.8759488,0.4832466,0.958531,1.044943,-1.420608,-0.3762292,-0.7274506,0.4864181,0.0524141,0.01284403,0.0429082,172.17.160.76,10.64.29.0,2,unknown,0,2014-11-15 18:00:50.275,8,2014-11-15 17:52:35.410,3
2014-11-15 18:00:50.418,16794,559.8,40.10476,-88.22198,233.9551,0.3,287.9297,4,10,1416096050,0.07008362,0.9096375,-0.04296875,31.52383,28.87443,-9.165131,249.9851,253.0674,10,-0.6035096,-0.9990561,0.4937724,1.074873,1.133551,-1.413091,-0.4489544,-0.9599807,0.5045725,-0.04373572,-0.1518206,0.04321812,172.17.160.76,10.64.29.0,2,unknown,0,2014-11-15 18:00:50.275,8,2014-11-15 17:52:35.410,3
