time,timestamp,recordtime,lat,long,alt,speed,course,verticalAccuracy,horizontalAccuracy,locTimeStamp,accelerationX,accelerationY,accelerationZ,HeadingX,HeadingY,HeadingZ,TrueHeading,MagneticHeading,HeadingAccuracy,RotationX,RotationY,RotationZ,motionYaw,motionRoll,motionPitch,motionRotationRateX,motionRotationRateY,motionRotationRateZ,motionUserAccelerationX,motionUserAccelerationY,motionUserAccelerationZ,en0,pdp_ip0,DeviceOrientation,Activity,Activity Confidence,Activity Start,Steps,Last Step Date,State
2014-11-15 17:57:35.251,10944,364.8,40.10484,-88.22191,235.6702,0.34,262.9688,6,10,1416095855,0.07044983,1.139328,0.05058289,29.86556,29.49704,-3.681976,256.7944,259.8767,10,-0.0484927,-0.2312881,0.4670772,2.026059,2.28205,-1.541189,-0.06627643,-0.0236842,0.4296856,0.03935746,0.09218936,-0.08151902,172.17.160.76,10.64.29.0,2,unknown,2,2014-11-15 17:57:12.573,8,2014-11-15 17:52:35.410,3
2014-11-15 17:57:35.284,10945,364.8333,40.10484,-88.22191,235.6702,0.34,262.9688,6,10,1416095855,0.1720886,1.168793,0.274826,30.34612,29.01522,-3.950897,255.3263,258.4086,10,0.4037195,-0.30441,0.3800802,1.667366,1.917158,-1.530481,0.2254033,-0.2952982,0.5014656,0.06183566,0.1703835,0.1056718,172.17.160.76,10.64.29.0,2,unknown,2,2014-11-15 17:57:12.573,8,2014-11-15 17:52:35.410,3
2014-11-15 17:57:35.318,10946,364.8667,40.10484,-88.22191,235.6702,0.34,262.9688,6,10,1416095855,0.1159821,0.8950348,0.1370239,30.62073,28.46456,-4.219818,254.4918,257.5741,10,0.2649318,0.09856998,-0.1575723,1.231859,1.473601,-1.519336,0.5199779,-0.05836528,0.09400101,0.08958232,0.06548702,0.252062,172.17.160.76,10.64.29.0,2,unknown,2,2014-11-15 17:57:12.573,8,2014-11-15 17:52:35.410,3
2014-11-15 17:57:35.351,10947,364.9,40.10484,-88.22191,235.6702,0.34,262.9688,6,10,1416095855,0.04675293,0.9158936,0.06420898,30.55207,27.7074,-4.69046,253.3072,256.3895,10,0.1138115,-0.1165197,0.05521878,1.012449,1.258232,-1.519827,0.2509986,0.1358176,-0.099282,0.0417613,-0.1489394,0.1040758,172.17.160.76,10.64.29.0,2,unknown,2,2014-11-15 17:57:12.573,8,2014-11-15 17:52:35.410,3
2014-11-15 17:57:35.384,10948,364.9333,40.10484,-88.22191,235.6702,0.34,262.9688,6,10,1416095855,0.1004181,1.001602,0.01179504,30.48342,27.63855,-5.161041,253.3512,256.4335,10,0.01153096,-0.3114439,-0.01442102,0.9191329,1.164484,-1.516801,0.1575149,-0.1358986,0.07584314,-3.003929e-05,-0.02028637,0.09042179,172.17.160.76,10.64.29.0,2,unknown,2,2014-11-15 17:57:12.573,8,2014-11-15 17:52:35.410,3
2014-11-15 17:57:35.418,10949,364.9667,40.10484,-88.22191,235.6702,0.34,262.9688,6,10,1416095855,0.09570312,0.9855957,0.01118469,30.62073,27.91389,-5.430023,253.0338,256.1161,10,-0.1331836,-0.467478,-0.1431401,0.8781552,1.116624,-1.515447,0.02238248,-0.2823266,-0.04649245,0.05070559,0.003133533,0.03606525,172.17.160.76,10.64.29.0,2,unknown,2,2014-11-15 17:57:12.573,8,2014-11-15 17:52:35.410,3
2014-11-15 17:57:35.451,10950,365,40.10484,-88.22191,235.6702,0.34,262.9688,6,10,1416095855,0.05752563,0.9781036,0.0008087158,30.17449,28.3613,-6.270294,251.4982,254.5806,10,-0.1931069,-0.5052145,-0.07836404,0.8875186,1.110189,-1.520283,-0.105588,-0.4578161,-0.076659,0.02550969,-0.01499032,0.04177629,172.17.160.76,10.64.29.0,2,unknown,2,2014-11-15 17:57:12.573,8,2014-11-15 17:52:35.410,3
2014-11-15 17:57:35.484,10951,365.0334,40.10484,-88.22191,235.6702,0.34,262.9688,6,10,1416095855,0.09489441,0.9676971,-0.01502991,30.00286,28.60221,-6.169403,251.5518,254.6342,10,-0.3083312,-0.492158,-0.04495789,0.9597527,1.169921,-1.523857,-0.2058255,-0.387435,-0.04937608,0.01432308,-0.02079489,0.01911908,172.17.160.76,10.64.29.0,2,unknown,2,2014-11-15 17:57:12.573,8,2014-11-15 17:52:35.410,3
2014-11-15 17:57:35.518,10952,365.0667,40.10484,-88.22191,235.6702,0.34,262.9688,6,10,1416095855,0.1014099,0.9581604,0.0554657,29.5223,29.0152,-6.303864,250.6687,253.751,10,-0.3663684,-0.6314818,0.07553471,1.122951,1.318976,-1.526385,-0.2904493,-0.5332974,0.04782892,0.05102821,-0.04712494,0.02506976,172.17.160.76,10.64.29.0,2,unknown,2,2014-11-15 17:57:12.573,8,2014-11-15 17:52:35.410,3
2014-11-15 17:57:35.551,10953,365.1,40.10484,-88.22191,235.6702,0.34,262.9688,6,10,1416095855,0.09893799,1.019806,-0.03030396,29.96854,29.53144,-5.934052,250.3949,253.4772,10,-0.3644967,-0.6074106,0.1680034,1.433475,1.606293,-1.521379,-0.2854573,-0.5739903,0.1473814,0.04911397,-0.04151907,0.03056504,172.17.160.76,10.64.29.0,2,unknown,2,2014-11-15 17:57:12.573,8,2014-11-15 17:52:35.410,3
2014-11-15 17:57:35.584,10954,365.1334,40.10484,-88.22191,235.6702,0.34,262.9688,6,10,1416095855,0.1052704,1.046936,-0.04019165,30.62073,29.35935,-5.766022,249.6497,252.732,10,-0.4176018,-0.7569231,0.06445116,1.628871,1.778697,-1.512228,-0.3547432,-0.6261359,0.1325078,0.06212517,0.04199786,-0.07169811,172.17.160.76,10.64.29.0,2,unknown,2,2014-11-15 17:57:12.573,8,2014-11-15 17:52:35.410,3
2014-11-15 17:57:35.617,10955,365.1667,40.10484,-88.22191,235.6702,0.34,262.9688,6,10,1416095855,0.08868408,1.035187,0.01052856,30.89534,29.35935,-5.833282,249.5726,252.6549,10,-0.334158,-0.5873559,0.01089606,1.776061,1.9054,-1.506638,-0.3289568,-0.6702991,0.05469111,0.04019486,0.04198971,-0.03809902,172.17.160.76,10.64.29.0,2,unknown,2,2014-11-15 17:57:12.573,8,2014-11-15 17:52:35.410,3
2014-11-15 17:57:35.651,10956,365.2,40.10484,-88.22191,235.6702,0.34,262.9688,6,10,1416095855,0.09213257,1.03154,-0.0009918213,30.86101,29.32494,-5.665253,248.1826,251.2649,10,-0.2588848,-0.1759508,-0.09973644,1.886318,1.999434,-1.502846,-0.2283653,-0.3966379,-0.00262607,0.01212711,0.04733646,-0.02284973,172.17.160.76,10.64.29.0,2,unknown,2,2014-11-15 17:57:12.573,8,2014-11-15 17:52:35.410,3
2014-11-15 17:57:35.685,10957,365.2333,40.10484,-88.22191,235.6702,0.34,262.9688,6,10,1416095855,0.09568787,0.9828949,-0.05384827,30.48343,29.97884,-5.833282,247.2487,250.3311,10,-0.2023219,0.02507632,-0.06916815,1.942381,2.050745,-1.502219,-0.1595696,0.002209916,-0.08782324,0.03693579,0.01387087,-0.03080032,172.17.160.76,10.64.29.0,2,unknown,2,2014-11-15 17:57:12.573,8,2014-11-15 17:52:35.410,3
2014-11-15 17:57:35.717,10958,365.2667,40.10484,-88.22191,235.6702,0.34,262.9688,6,10,1416095855,0.09463501,0.9740448,-0.01347351,30.27747,30.04768,-5.631561,247.4402,250.5225,10,-0.1279915,-0.05087703,0.00870321,1.89209,2.002402,-1.501961,-0.1138158,0.08761583,-0.03127928,0.033214,-0.01473685,-0.08262159,172.17.160.76,10.64.29.0,2,unknown,2,2014-11-15 17:57:12.573,8,2014-11-15 17:52:35.410,3
2014-11-15 17:57:35.751,10959,365.3,40.10484,-88.22191,235.6702,0.34,262.9688,6,10,1416095855,0.07809448,0.9953613,0.05232239,30.00286,30.25417,-5.429901,247.7803,250.8626,10,-0.09718354,-0.09640057,0.03276221,1.855116,1.965909,-1.49898,-0.04269353,-0.02661536,0.0432246,0.03060607,-0.04177961,-0.02824486,172.17.160.76,10.64.29.0,2,unknown,2,2014-11-15 17:57:12.573,8,2014-11-15 17:52:35.410,3
2014-11-15 17:57:35.784,10960,365.3333,40.10484,-88.22191,235.6702,0.34,262.9688,6,10,1416095855,0.04986572,0.9737244,0.05505371,29.93421,29.97885,-5.900421,246.8781,249.9604,10,-0.05118942,-0.04996463,-0.006440322,1.871151,1.980611,-1.495913,0.01493157,-0.01402876,0.02503281,-0.004638492,0.0004678667,0.04187711,172.17.160.76,10.64.29.0,2,unknown,2,2014-11-15 17:57:12.573,8,2014-11-15 17:52:35.410,3
2014-11-15 17:57:35.818,10961,365.3667,40.10484,-88.22191,235.6702,0.34,262.9688,6,10,1416095855,0.06767273,0.9474945,0.04922485,29.89988,30.49511,-6.068573,246.4741,249.5564,10,-0.1022039,0.009286975,-0.04308915,1.885493,1.995493,-1.496874,0.002275545,0.04311837,-0.00646706,-0.01985429,-0.04205355,0.008508963,172.17.160.76,10.64.29.0,2,unknown,2,2014-11-15 17:57:12.573,8,2014-11-15 17:52:35.410,3
2014-11-15 17:57:35.851,10962,365.4,40.10484,-88.22191,235.6702,0.34,262.9688,6,10,1416095855,0.08918762,0.9815063,0.04574585,30.03719,30.42628,-6.270294,246.2957,249.378,10,-0.1267752,-0.05125307,-0.04119298,1.921696,2.034028,-1.495756,-0.0424736,0.03348137,-0.01908553,0.007424361,-0.03260145,0.02074534,172.17.160.76,10.64.29.0,2,unknown,2,2014-11-15 17:57:12.573,8,2014-11-15 17:52:35.410,3
2014-11-15 17:57:35.884,10963,365.4333,40.10484,-88.22191,235.6702,0.34,262.9688,6,10,1416095855,0.1106567,1.03624,0.05413818,30.00286,30.32302,-5.766144,246.9803,250.0626,10,-0.1246759,-0.07778721,-0.03709464,1.938479,2.051076,-1.495674,-0.05953728,0.00795523,-0.02340204,0.02262698,-0.01567331,0.01106999,172.17.160.76,10.64.29.0,2,unknown,2,2014-11-15 17:57:12.573,8,2014-11-15 17:52:35.410,3
2014-11-15 17:57:35.918,10964,365.4667,40.10484,-88.22191,235.6702,0.34,262.9688,6,10,1416095855,0.1128998,1.029236,0.04794312,30.03719,30.01327,-5.329132,247.079,250.1613,10,-0.06177735,-0.1363735,-0.05249943,1.955279,2.06562,-1.493315,-0.01479625,-0.06225536,-0.03136195,0.03394637,0.01972383,0.01121628,172.17.160.76,10.64.29.0,2,unknown,2,2014-11-15 17:57:12.573,8,2014-11-15 17:52:35.410,3
2014-11-15 17:57:35.951,10965,365.5,40.10484,-88.22191,235.6702,0.34,262.9688,6,10,1416095855,0.09770203,1.045914,0.05535889,29.89988,29.80678,-5.329132,247.16,250.2423,10,-0.04254187,-0.1088194,-0.06091821,1.945018,2.054165,-1.491335,0.005469586,-0.06761875,-0.03676571,0.0426157,0.03239126,0.01105096,172.17.160.76,10.64.29.0,2,unknown,2,2014-11-15 17:57:12.573,8,2014-11-15 17:52:35.410,3
2014-11-15 17:57:35.985,10966,365.5334,40.10484,-88.22191,235.6702,0.34,262.9688,6,10,1416095855,0.08071899,1.124374,-0.02415466,30.03719,29.80678,-5.194733,247.2319,250.3143,10,0.0416585,0.4580807,-0.2641757,1.939523,2.052002,-1.492327,0.07519377,0.2793855,-0.09251526,0.03303732,0.08080538,0.00967747,172.17.160.76,10.64.29.0,2,unknown,2,2014-11-15 17:57:12.573,8,2014-11-15 17:52:35.410,3
2014-11-15 17:57:36.018,10967,365.5667,40.10484,-88.22191,235.6702,0.34,262.9688,6,10,1416095855,0.03297424,0.8986053,-0.006561279,29.96854,29.80678,-5.329132,247.6733,250.7556,10,0.08114678,0.5037289,-0.2672676,1.952139,2.085428,-1.5029,0.1144615,0.6156831,-0.3021264,-0.02095569,0.04006959,-0.08081833,172.17.160.76,10.64.29.0,2,unknown,2,2014-11-15 17:57:12.573,8,2014-11-15 17:52:35.410,3
2014-11-15 17:57:36.051,10968,365.6,40.10484,-88.22191,235.6702,0.34,262.9688,6,10,1416095855,0.08363342,0.9865417,0.05513,30.10584,30.15093,-4.051788,251.4221,254.5044,10,0.2052474,0.16989,-0.1442355,1.89712,2.047691,-1.51298,0.2351214,0.2537062,-0.1059874,0.04900456,-0.1011886,-0.02393042,172.17.160.76,10.64.29.0,2,unknown,2,2014-11-15 17:57:12.573,8,2014-11-15 17:52:35.410,3
2014-11-15 17:57:36.084,10969,365.6334,40.10484,-88.22191,235.6702,0.34,262.9688,6,10,1416095855,0.02207947,0.9941406,0.03434753,30.07151,30.18534,-3.480438,253.1143,256.1966,10,0.3066912,0.3163345,-0.1629508,1.77118,1.92683,-1.516077,0.3226552,0.2830304,-0.1507304,0.03237173,-0.01196155,0.03606673,172.17.160.76,10.64.29.0,2,unknown,2,2014-11-15 17:57:12.573,8,2014-11-15 17:52:35.410,3
2014-11-15 17:57:36.118,10970,365.6667,40.10484,-88.22191,235.612,0.77,207.0703,6,10,1416095856,0.1455536,0.987915,0.09165955,30.3118,30.15093,-2.909027,254.9742,258.0565,10,0.2801443,0.4938742,-0.1523632,1.605321,1.774882,-1.52467,0.3804733,0.5655496,-0.1632618,0.02431992,-0.04317158,0.02954937,172.17.160.76,10.64.29.0,2,unknown,2,2014-11-15 17:57:12.573,8,2014-11-15 17:52:35.410,3
2014-11-15 17:57:36.151,10971,365.7,40.10484,-88.22191,235.612,0.77,207.0703,6,10,1416095856,0.03147888,1.093704,0.2217712,30.34612,29.70352,-3.144318,256.8234,259.9057,10,0.2723886,-0.0323654,-0.1890727,1.352994,1.539712,-1.528988,0.322541,0.1916885,-0.1437767,0.01875565,0.06283978,0.09457599,172.17.160.76,10.64.29.0,2,unknown,2,2014-11-15 17:57:12.573,8,2014-11-15 17:52:35.410,3
2014-11-15 17:57:36.184,10972,365.7333,40.10484,-88.22191,235.612,0.77,207.0703,6,10,1416095856,-0.0368042,1.02002,0.02287292,30.38045,29.94444,-3.043488,257.6518,260.7341,10,0.3250116,-0.3452836,-0.3968451,1.168402,1.355079,-1.531918,0.3790549,-0.1362684,-0.2316955,-0.0064892,0.09445991,0.2300911,172.17.160.76,10.64.29.0,2,unknown,2,2014-11-15 17:57:12.573,8,2014-11-15 17:52:35.410,3
2014-11-15 17:57:36.218,10973,365.7667,40.10484,-88.22191,235.612,0.77,207.0703,6,10,1416095856,0.08137512,0.9753113,-0.04393005,29.76258,29.80678,-3.379669,258.4204,261.5027,10,0.4010497,0.4405481,-0.312319,0.5044447,0.6864358,-1.534938,0.3794225,0.3493317,-0.2302013,0.03753504,-0.0674266,-0.1450135,172.17.160.76,10.64.29.0,2,unknown,2,2014-11-15 17:57:12.573,8,2014-11-15 17:52:35.410,3
2014-11-15 17:57:36.251,10974,365.8,40.10484,-88.22191,235.612,0.77,207.0703,6,10,1416095856,0.04252625,1.156601,0.06028748,28.97308,30.25419,-3.4133,259.4185,262.5009,10,0.5309321,-0.255321,-0.4311098,0.1476086,0.3435924,-1.52694,0.5726002,0.2677742,-0.3247647,0.02464408,0.06715418,0.07953393,172.17.160.76,10.64.29.0,2,unknown,2,2014-11-15 17:57:12.573,8,2014-11-15 17:52:35.410,3
2014-11-15 17:57:36.285,10975,365.8333,40.10484,-88.22191,235.612,0.77,207.0703,6,10,1416095856,0.02505493,0.9531555,-0.1131287,28.80145,30.21979,-3.64859,259.7154,262.7977,10,0.4744027,0.180198,-0.3107803,-0.1461693,0.04709378,-1.511358,0.6077727,-0.1293211,-0.4235824,0.07610669,0.1650655,0.1110345,172.17.160.76,10.64.29.0,2,unknown,2,2014-11-15 17:57:12.573,8,2014-11-15 17:52:35.410,3
2014-11-15 17:57:36.318,10976,365.8667,40.10484,-88.22191,235.612,0.77,207.0703,6,10,1416095856,0.0231781,1.396439,0.2112885,28.49252,30.11653,-3.14444,263.3627,266.445,10,0.6598426,-0.06354995,-0.3552175,-0.3053291,-0.1029152,-1.488421,0.606488,0.274707,-0.2484286,0.03021223,-0.002987209,0.06295688,172.17.160.76,10.64.29.0,2,unknown,2,2014-11-15 17:57:12.573,8,2014-11-15 17:52:35.410,3
2014-11-15 17:57:36.351,10977,365.9,40.10484,-88.22191,235.612,0.77,207.0703,6,10,1416095856,0.009414673,0.9582367,0.04281616,28.32089,29.80679,-3.312469,264.8733,267.9556,10,0.6400253,-0.1881278,-0.5320053,-0.4234904,-0.226794,-1.454448,0.8062423,-0.2267571,-0.5097575,0.02459196,0.1998151,0.3404696,172.17.160.76,10.64.29.0,2,unknown,2,2014-11-15 17:57:12.573,8,2014-11-15 17:52:35.410,3
2014-11-15 17:57:36.384,10978,365.9333,40.10484,-88.22191,235.612,0.77,207.0703,6,10,1416095856,0.03723145,1.016098,-0.2428589,27.9433,29.84121,-3.346039,266.1708,269.2531,10,0.517213,-0.03955007,-0.4224919,-0.4742261,-0.2791269,-1.438602,0.6272017,-0.02560461,-0.4772449,0.04573037,-0.03303836,0.1695242,172.17.160.76,10.64.29.0,2,unknown,2,2014-11-15 17:57:12.573,8,2014-11-15 17:52:35.410,3
2014-11-15 17:57:36.418,10979,365.9667,40.10484,-88.22191,235.612,0.77,207.0703,6,10,1416095856,-0.07347107,0.9008179,-0.09898376,27.42841,30.35745,-3.379669,268.4001,271.4824,10,0.5615866,-0.3600785,-0.3712718,-0.5156207,-0.3225046,-1.409943,0.6842053,-0.2382102,-0.3448313,0.02080863,0.009490981,0.1154345,172.17.160.76,10.64.29.0,2,unknown,2,2014-11-15 17:57:12.573,8,2014-11-15 17:52:35.410,3
2014-11-15 17:57:36.451,10980,366,40.10484,-88.22191,235.612,0.77,207.0703,6,10,1416095856,-0.01861572,0.9648895,-0.1265564,26.50161,30.73605,-2.942688,271.3528,274.4352,10,0.334432,-0.2788479,-0.3222268,-0.538695,-0.3536863,-1.390527,0.4570583,-0.2272634,-0.3163247,0.009976243,-0.07385276,0.03434683,172.17.160.76,10.64.29.0,2,unknown,2,2014-11-15 17:57:12.573,8,2014-11-15 17:52:35.410,3
2014-11-15 17:57:36.484,10981,366.0334,40.10484,-88.22191,235.612,0.77,207.0703,6,10,1416095856,-0.0657196,0.9540558,-0.1098328,26.15835,30.80487,-2.875458,272.3522,275.4345,10,0.4025922,-0.4458542,-0.3424681,-0.5606445,-0.3812959,-1.375736,0.4442619,-0.2272494,-0.3152153,0.05888239,0.02258029,0.0975538,172.17.160.76,10.64.29.0,2,unknown,2,2014-11-15 17:57:12.573,8,2014-11-15 17:52:35.410,3
2014-11-15 17:57:36.518,10982,366.0667,40.10484,-88.22191,235.612,0.77,207.0703,6,10,1416095856,-0.0289917,0.7934723,-0.2160645,25.60914,30.94254,-2.875458,273.2262,276.3085,10,0.3414727,-0.4651664,-0.2298239,-0.5820283,-0.4161964,-1.353781,0.4429772,-0.3768125,-0.2809693,0.0761694,-0.03918176,0.085958,172.17.160.76,10.64.29.0,2,unknown,2,2014-11-15 17:57:12.573,8,2014-11-15 17:52:35.410,3
2014-11-15 17:57:36.551,10983,366.1,40.10484,-88.22191,235.612,0.77,207.0703,6,10,1416095856,-0.04074097,0.8275757,-0.1150208,25.91807,31.32112,-2.438446,277.6638,280.7461,10,0.2119149,-0.3423275,-0.01108807,-0.5797281,-0.4251537,-1.341519,0.3335474,-0.3377699,-0.0415206,0.06487188,-0.2233121,-0.006185564,172.17.160.76,10.64.29.0,2,unknown,2,2014-11-15 17:57:12.573,8,2014-11-15 17:52:35.410,3
2014-11-15 17:57:36.584,10984,366.1334,40.10484,-88.22191,235.612,0.77,207.0703,6,10,1416095856,-0.04278564,0.7868652,-0.0765686,25.84942,31.25228,-2.169586,278.4598,281.5421,10,0.1103209,-0.4969134,0.05535167,-0.5642475,-0.418664,-1.333709,0.2597992,-0.3510999,0.01812826,0.0429798,-0.1036789,0.1227602,172.17.160.76,10.64.29.0,2,unknown,2,2014-11-15 17:57:12.573,8,2014-11-15 17:52:35.410,3
2014-11-15 17:57:36.618,10985,366.1667,40.10484,-88.22191,235.612,0.77,207.0703,6,10,1416095856,-0.08351135,0.7367096,-0.1917419,26.15835,31.56201,-2.001556,279.5494,282.6317,10,0.007587346,-0.4128448,0.2069095,-0.5384631,-0.4105409,-1.329169,0.09083257,-0.3805695,0.1863198,0.09618586,-0.2169062,0.07129821,172.17.160.76,10.64.29.0,2,unknown,2,2014-11-15 17:57:12.573,8,2014-11-15 17:52:35.410,3
2014-11-15 17:57:36.651,10986,366.2,40.10484,-88.22191,235.612,0.77,207.0703,6,10,1416095856,-0.0340271,0.7744598,-0.1998291,26.32999,31.73409,-2.976257,278.1186,281.2009,10,0.02051353,-0.1928129,0.2186346,-0.4961809,-0.3821706,-1.329879,0.1078131,-0.2558307,0.2431715,-0.009072966,-0.1936994,0.10134,172.17.160.76,10.64.29.0,2,unknown,2,2014-11-15 17:57:12.573,8,2014-11-15 17:52:35.410,3
2014-11-15 17:57:36.684,10987,366.2333,40.10484,-88.22191,235.612,0.77,207.0703,6,10,1416095856,-0.01167297,0.6969757,-0.2070312,26.81055,31.80293,-3.312408,277.3279,280.4102,10,-0.04163773,-0.1749494,0.3293555,-0.4751592,-0.3641843,-1.330246,0.04395693,-0.08253911,0.2517535,0.05083006,-0.1967471,0.02278351,172.17.160.76,10.64.29.0,2,unknown,2,2014-11-15 17:57:12.573,8,2014-11-15 17:52:35.410,3
2014-11-15 17:57:36.717,10988,366.2667,40.10484,-88.22191,235.612,0.77,207.0703,6,10,1416095856,-0.1306458,0.8599396,-0.08244324,27.39409,31.90617,-4.488861,275.1782,278.2605,10,0.01431875,-0.2396206,0.4933352,-0.4026751,-0.2986459,-1.333895,0.08891261,-0.1133541,0.5369614,0.1044069,-0.09363675,0.1810441,172.17.160.76,10.64.29.0,2,unknown,2,2014-11-15 17:57:12.573,8,2014-11-15 17:52:35.410,3
2014-11-15 17:57:36.751,10989,366.3,40.10484,-88.22191,235.612,0.77,207.0703,6,10,1416095856,-0.002593994,0.7449493,-0.2141113,28.69848,31.83734,-4.757782,273.7271,276.8094,10,-0.2065114,-0.3945542,0.506084,-0.3381442,-0.2427863,-1.336714,-0.02415522,-0.2973118,0.5120019,0.009070802,-0.1809033,0.1487314,172.17.160.76,10.64.29.0,2,unknown,2,2014-11-15 17:57:12.573,8,2014-11-15 17:52:35.410,3
2014-11-15 17:57:36.784,10990,366.3333,40.10484,-88.22191,235.612,0.77,207.0703,6,10,1416095856,-0.01815796,0.9697418,-0.1801147,29.41932,32.07825,-4.925873,273.0103,276.0926,10,-0.2090254,-0.1529991,0.6941862,-0.2687507,-0.1847699,-1.346191,-0.2676255,-0.230167,0.665059,0.1436559,-0.158659,0.0777866,172.17.160.76,10.64.29.0,2,unknown,2,2014-11-15 17:57:12.573,8,2014-11-15 17:52:35.410,3
2014-11-15 17:57:36.818,10991,366.3667,40.10484,-88.22191,235.612,0.77,207.0703,6,10,1416095856,0.04779053,0.6846313,-0.2286987,30.92966,32.1471,-5.060211,271.153,274.2354,10,-0.3917417,0.004636563,0.8740295,-0.1447507,-0.0666182,-1.3561,-0.1418841,-0.02462907,0.7346667,-0.08045244,-0.07396495,0.01387831,172.17.160.76,10.64.29.0,2,unknown,2,2014-11-15 17:57:12.573,8,2014-11-15 17:52:35.410,3
2014-11-15 17:57:36.850,10992,366.4,40.10484,-88.22191,235.612,0.77,207.0703,6,10,1416095856,-0.1413116,1.096481,-0.3384552,31.85646,32.04386,-5.766022,268.457,271.5393,10,-0.3499463,0.116916,0.829882,-0.1076958,-0.03043868,-1.358592,-0.2412551,0.005796337,0.8179945,-0.05976752,-0.2101893,-0.03136491,172.17.160.76,10.64.29.0,2,unknown,2,2014-11-15 17:57:12.573,8,2014-11-15 17:52:35.410,3
2014-11-15 17:57:36.884,10993,366.4333,40.10484,-88.22191,235.612,0.77,207.0703,6,10,1416095856,0.09698486,0.6200562,-0.265625,32.13107,31.63087,-6.303864,266.5553,269.6376,10,-0.2973409,-0.117178,0.6480004,0.0812308,0.1559639,-1.367462,-0.09674668,-0.1245687,0.5885482,-0.07842536,0.07635697,-0.005882715,172.17.160.76,10.64.29.0,2,unknown,2,2014-11-15 17:57:12.573,8,2014-11-15 17:52:35.410,3
2014-11-15 17:57:36.918,10994,366.4667,40.10484,-88.22191,235.612,0.77,207.0703,6,10,1416095856,0.02005005,1.056656,-0.2870331,33.53844,31.25228,-7.009735,263.7929,266.8752,10,-0.3016131,0.1106682,0.7086592,0.2238361,0.298127,-1.370167,-0.2771692,0.3211662,0.7879451,0.1579858,-0.2162389,0.05510411,172.17.160.76,10.64.29.0,2,unknown,2,2014-11-15 17:57:12.573,8,2014-11-15 17:52:35.410,3
2014-11-15 17:57:36.951,10995,366.5,40.10484,-88.22191,235.612,0.77,207.0703,6,10,1416095856,0.03057861,0.8217163,-0.2405548,35.25473,30.90811,-7.278717,261.4898,264.5721,10,-0.1581638,0.00158032,0.4825134,0.3286002,0.4040464,-1.368193,-0.09128308,0.03691113,0.5851319,-0.004462264,0.1265179,-0.005106762,172.17.160.76,10.64.29.0,2,unknown,2,2014-11-15 17:57:12.573,8,2014-11-15 17:52:35.410,3
2014-11-15 17:57:36.984,10996,366.5334,40.10484,-88.22191,235.612,0.77,207.0703,6,10,1416095856,0.1794434,0.8993073,-0.3421173,36.11288,30.80486,-7.312286,260.645,263.7273,10,-0.3631252,0.08434977,0.5962338,0.4343012,0.5100379,-1.364632,-0.2575728,0.03801626,0.5804529,0.04597972,-0.1856257,-0.02375469,172.17.160.76,10.64.29.0,2,unknown,2,2014-11-15 17:57:12.573,8,2014-11-15 17:52:35.410,3
2014-11-15 17:57:37.018,10997,366.5667,40.10484,-88.22191,235.612,0.77,207.0703,6,10,1416095856,0.07563782,0.9745941,-0.1941681,37.55457,30.39187,-7.312286,259.2887,262.371,10,-0.09167559,0.118737,0.3820406,0.5246056,0.6028705,-1.360695,-0.08893225,0.163047,0.5443893,0.01458832,0.164141,0.06438552,172.17.160.76,10.64.29.0,2,unknown,2,2014-11-15 17:57:12.573,8,2014-11-15 17:52:35.410,3
2014-11-15 17:57:37.051,10998,366.6,40.10484,-88.22191,235.612,0.77,207.0703,6,10,1416095856,0.2232056,0.9569855,-0.1808167,38.58435,29.56587,-8.118988,256.7485,259.8308,10,-0.2743687,-0.1229097,0.4525715,0.5727471,0.6528223,-1.35553,-0.1365643,-0.03047467,0.3822033,-0.07977927,-0.1478027,-0.1681456,172.17.160.76,10.64.29.0,2,unknown,2,2014-11-15 17:57:12.573,8,2014-11-15 17:52:35.410,3
2014-11-15 17:57:37.084,10999,366.6334,40.10484,-88.22191,235.612,0.77,207.0703,6,10,1416095856,0.3029175,1.008499,-0.1002808,39.23655,29.39379,-8.555939,255.7283,258.8106,10,-0.08963534,-0.05030552,0.3694665,0.6355527,0.7133376,-1.351,-0.1014949,-0.04086301,0.4159845,-0.04268012,0.1260479,-0.2201997,172.17.160.76,10.64.29.0,2,unknown,2,2014-11-15 17:57:12.573,8,2014-11-15 17:52:35.410,3
2014-11-15 17:57:37.118,11000,366.6667,40.10483,-88.22192,235.636,0.56,220.0781,6,10,1416095857,0.129364,1.198929,-0.1462708,39.95739,29.29054,-9.32901,254.0612,257.1435,10,-0.04249127,-0.2116766,0.2495542,0.6769798,0.7548659,-1.342433,0.01506018,-0.05032524,0.2955507,-0.0133771,-0.09587967,0.009051486,172.17.160.76,10.64.29.0,2,unknown,2,2014-11-15 17:57:12.573,8,2014-11-15 17:52:35.410,3
2014-11-15 17:57:37.151,11001,366.7,40.10483,-88.22192,235.636,0.56,220.0781,6,10,1416095857,0.2198334,0.7109985,-0.1395569,41.19312,29.70354,-10.00131,251.7353,254.8176,10,-0.14433,-0.172429,0.09304286,0.7008768,0.7746403,-1.336523,0.03023771,-0.1128661,0.1815907,0.02423017,0.2224003,-0.04399871,172.17.160.76,10.64.29.0,2,unknown,2,2014-11-15 17:57:12.573,8,2014-11-15 17:52:35.410,3
2014-11-15 17:57:37.184,11002,366.7333,40.10483,-88.22192,235.636,0.56,220.0781,6,10,1416095857,0.1836853,1.297379,-0.188797,41.36475,29.66914,-10.63998,250.9465,254.0288,10,-0.0529258,-0.3793785,0.1319471,0.7110044,0.7822667,-1.335359,-0.07720725,-0.1038004,0.1087985,0.03228778,-0.25264,-0.07117173,172.17.160.76,10.64.29.0,2,unknown,2,2014-11-15 17:57:12.573,8,2014-11-15 17:52:35.410,3
2014-11-15 17:57:37.218,11003,366.7667,40.10483,-88.22192,235.636,0.56,220.0781,6,10,1416095857,0.1116791,0.6629791,-0.3124847,41.46774,29.56589,-12.21976,248.42,251.5023,10,-0.05100406,-0.0674616,-0.07234504,0.7166049,0.773977,-1.331537,0.08624092,-0.1569008,-0.01840967,-0.119459,0.1885508,-0.05870493,172.17.160.76,10.64.29.0,2,unknown,2,2014-11-15 17:57:12.573,8,2014-11-15 17:52:35.410,3
2014-11-15 17:57:37.251,11004,366.8,40.10483,-88.22192,235.636,0.56,220.0781,6,10,1416095857,0.4414215,1.196686,0.09881592,41.36476,29.6003,-12.85849,247.6116,250.6939,10,0.08486403,-0.2576875,0.07369047,0.713222,0.7706041,-1.331988,-0.02020829,0.009900695,-0.02774758,-0.05309104,-0.3086413,-0.1427658,172.17.160.76,10.64.29.0,2,unknown,2,2014-11-15 17:57:12.573,8,2014-11-15 17:52:35.410,3
2014-11-15 17:57:37.284,11005,366.8333,40.10483,-88.22192,235.636,0.56,220.0781,6,10,1416095857,0.01210022,0.6152496,-0.3036041,41.19313,29.49704,-13.83322,246.3185,249.4008,10,0.08971471,-0.2314761,-0.114072,0.690142,0.7375303,-1.326443,0.2090881,-0.2321122,-0.1211682,-0.1580491,-0.07927234,-0.08372792,172.17.160.76,10.64.29.0,2,unknown,2,2014-11-15 17:57:12.573,8,2014-11-15 17:52:35.410,3
2014-11-15 17:57:37.318,11006,366.8667,40.10483,-88.22192,235.636,0.56,220.0781,6,10,1416095857,0.3162079,1.368607,-0.1514435,41.50206,29.53146,-14.80801,246.7125,249.7948,10,0.0008423579,-0.4210223,-0.03300322,0.6751487,0.7170948,-1.325845,0.0104819,-0.3099988,-0.03485476,-0.03014978,-0.2141677,-0.0796066,172.17.160.76,10.64.29.0,2,unknown,2,2014-11-15 17:57:12.573,8,2014-11-15 17:52:35.410,3
2014-11-15 17:57:37.351,11007,366.9,40.10483,-88.22192,235.636,0.56,220.0781,6,10,1416095857,0.06056213,0.8317566,-0.1854095,41.9483,29.29054,-16.52225,245.3896,248.4719,10,0.09446632,-0.128366,-0.2494165,0.6618525,0.6937121,-1.324705,0.1611112,-0.2916985,-0.1351018,0.1132918,0.2531962,0.1161279,172.17.160.76,10.64.29.0,2,unknown,2,2014-11-15 17:57:12.573,8,2014-11-15 17:52:35.410,3
2014-11-15 17:57:37.384,11008,366.9333,40.10483,-88.22192,235.636,0.56,220.0781,6,10,1416095857,0.1723785,1.117889,-0.3164215,41.81099,29.49704,-16.85837,245.1149,248.1972,10,-0.09632228,-0.1901092,-0.2766258,0.6277369,0.6569534,-1.325181,0.1158525,-0.04933906,-0.2663414,-0.1176725,-0.06122025,-0.04660872,172.17.160.76,10.64.29.0,2,unknown,2,2014-11-15 17:57:12.573,8,2014-11-15 17:52:35.410,3
2014-11-15 17:57:37.418,11009,366.9667,40.10483,-88.22192,235.636,0.56,220.0781,6,10,1416095857,0.2219086,1.087708,-0.1890411,41.63936,29.32497,-18.5054,243.9127,246.995,10,0.07016338,-0.1895771,-0.3366894,0.6043573,0.6283426,-1.332373,0.01431152,-0.1880903,-0.2136179,0.1418175,0.1172929,0.01403008,172.17.160.76,10.64.29.0,2,unknown,2,2014-11-15 17:57:12.573,8,2014-11-15 17:52:35.410,3
2014-11-15 17:57:37.451,11010,367,40.10483,-88.22192,235.636,0.56,220.0781,6,10,1416095857,0.1152039,0.8848114,-0.3927765,41.09015,29.32497,-19.64828,242.9058,245.9881,10,-0.1495224,-0.3340611,-0.3472424,0.5640817,0.5851356,-1.334592,0.1256132,-0.1040567,-0.3356627,-0.01898864,0.1468768,-0.0519268,172.17.160.76,10.64.29.0,2,unknown,2,2014-11-15 17:57:12.573,8,2014-11-15 17:52:35.410,3
2014-11-15 17:57:37.484,11011,367.0334,40.10483,-88.22192,235.636,0.56,220.0781,6,10,1416095857,0.1243439,0.8658905,-0.2415314,41.2961,29.32497,-20.58945,242.0241,245.1064,10,-0.1865643,-0.4598054,-0.1153013,0.5331751,0.5484188,-1.341126,-0.2020553,-0.320105,-0.2612697,-0.003482322,-0.08893008,-0.1985057,172.17.160.76,10.64.29.0,2,unknown,2,2014-11-15 17:57:12.573,8,2014-11-15 17:52:35.410,3
2014-11-15 17:57:37.518,11012,367.0667,40.10483,-88.22192,235.636,0.56,220.0781,6,10,1416095857,0.1371155,1.042465,-0.1529846,41.12447,29.97888,-21.63144,241.9786,245.0609,10,-0.03204289,0.1103513,-0.3050057,0.518554,0.5240635,-1.3477,0.01130859,0.02646757,-0.2241534,0.1465795,0.3510311,0.09806638,172.17.160.76,10.64.29.0,2,unknown,2,2014-11-15 17:57:12.573,8,2014-11-15 17:52:35.410,3
2014-11-15 17:57:37.550,11013,367.1,40.10483,-88.22192,235.636,0.56,220.0781,6,10,1416095857,0.1054535,0.9647827,-0.2228241,41.0215,30.28862,-22.27011,241.4281,244.5104,10,-0.2664495,-0.4397119,-0.1329415,0.4882825,0.4979495,-1.351382,-0.07306901,-0.0391004,-0.1880924,-0.03540118,-0.1433987,-0.1635404,172.17.160.76,10.64.29.0,2,unknown,2,2014-11-15 17:57:12.573,8,2014-11-15 17:52:35.410,3
2014-11-15 17:57:37.584,11014,367.1334,40.10483,-88.22192,235.636,0.56,220.0781,6,10,1416095857,0.233963,1.162506,0.08647156,40.54093,30.56394,-23.61459,240.3269,243.4092,10,0.01453713,-0.1496819,-0.2630287,0.4815867,0.47346,-1.35964,-0.03386815,-0.2897588,-0.1715141,0.1500847,0.1679932,0.2203328,172.17.160.76,10.64.29.0,2,unknown,2,2014-11-15 17:57:12.573,8,2014-11-15 17:52:35.410,3
2014-11-15 17:57:37.618,11015,367.1667,40.10483,-88.22192,235.636,0.56,220.0781,6,10,1416095857,-0.04563904,0.8020325,-0.4363098,40.71256,30.46069,-25.12717,241.0781,244.1604,10,-0.1796997,-0.2246382,-0.2106835,0.4561944,0.4477073,-1.360567,0.09044848,0.06837963,-0.2974716,0.02808402,0.08787388,0.03975563,172.17.160.76,10.64.29.0,2,unknown,2,2014-11-15 17:57:12.573,8,2014-11-15 17:52:35.410,3
2014-11-15 17:57:37.650,11016,367.2,40.10483,-88.22192,235.636,0.56,220.0781,6,10,1416095857,0.2204132,1.178207,0.0008544922,40.47227,30.7016,-25.76584,240.722,243.8044,10,-0.2058014,-0.4639344,-0.1003903,0.432867,0.4165021,-1.368567,-0.2474084,-0.4474614,-0.1025488,0.009806177,-0.12165,-0.05182129,172.17.160.76,10.64.29.0,2,unknown,2,2014-11-15 17:57:12.573,8,2014-11-15 17:52:35.410,3
2014-11-15 17:57:37.684,11017,367.2333,40.10483,-88.22192,235.636,0.56,220.0781,6,10,1416095857,0.007843018,0.9842834,-0.2097168,40.5066,30.87368,-26.87509,241.2338,244.3161,10,-0.04862826,-0.2543766,-0.2007161,0.4060975,0.3819245,-1.370481,0.1199664,0.0117022,-0.2023475,0.03692345,0.2286447,0.09051011,172.17.160.76,10.64.29.0,2,unknown,2,2014-11-15 17:57:12.573,8,2014-11-15 17:52:35.410,3
2014-11-15 17:57:37.718,11018,367.2667,40.10483,-88.22192,235.636,0.56,220.0781,6,10,1416095857,0.04806519,1.01535,-0.1932373,39.95739,30.59836,-27.81619,240.5031,243.5854,10,-0.2441397,-0.495953,-0.1216449,0.3861519,0.3605524,-1.370856,0.01848719,-0.1857555,-0.1849621,-0.0622253,0.00420511,-0.02387578,172.17.160.76,10.64.29.0,2,unknown,2,2014-11-15 17:57:12.573,8,2014-11-15 17:52:35.410,3
2014-11-15 17:57:37.751,11019,367.3,40.10483,-88.22192,235.636,0.56,220.0781,6,10,1416095857,0.05815125,1.151886,-0.1601868,40.12902,30.49511,-28.25314,240.3775,243.4599,10,-0.04768683,-0.1390889,-0.1300547,0.371282,0.3311464,-1.376893,-0.06072075,-0.2988317,-0.1077729,0.07480233,0.129748,0.1474008,172.17.160.76,10.64.29.0,2,unknown,2,2014-11-15 17:57:12.573,8,2014-11-15 17:52:35.410,3
2014-11-15 17:57:37.784,11020,367.3333,40.10483,-88.22192,235.636,0.56,220.0781,6,10,1416095857,0.0353241,0.9195709,-0.3384094,39.75143,29.77236,-29.09348,239.8682,242.9505,10,-0.1548396,-0.3080052,0.008511197,0.3549804,0.3119583,-1.377571,0.01294427,-0.06279556,-0.08345329,-0.0007856413,0.170496,0.02257004,172.17.160.76,10.64.29.0,2,unknown,2,2014-11-15 17:57:12.573,8,2014-11-15 17:52:35.410,3
2014-11-15 17:57:37.818,11021,367.3667,40.10483,-88.22192,235.636,0.56,220.0781,6,10,1416095857,0.115387,1.18483,-0.04234314,39.75143,29.70352,-29.90012,239.2608,242.3431,10,0.06464478,-0.3248369,0.04475256,0.3675772,0.314133,-1.379542,-0.04974041,-0.378949,0.118921,0.1050515,-0.01287932,-0.0488568,172.17.160.76,10.64.29.0,2,unknown,2,2014-11-15 17:57:12.573,8,2014-11-15 17:52:35.410,3
2014-11-15 17:57:37.851,11022,367.4,40.10483,-88.22192,235.636,0.56,220.0781,6,10,1416095857,-0.01972961,1.03511,-0.2568359,39.61413,29.49703,-30.70682,238.707,241.7893,10,0.04788896,-0.01791242,0.02307895,0.3732637,0.3127222,-1.376367,0.1501715,-0.04083823,0.01911201,0.03676672,0.2475253,0.2766245,172.17.160.76,10.64.29.0,2,unknown,2,2014-11-15 17:57:12.573,8,2014-11-15 17:52:35.410,3
2014-11-15 17:57:37.884,11023,367.4333,40.10483,-88.22192,235.636,0.56,220.0781,6,10,1416095857,0.136261,1.084793,-0.05737305,39.78576,29.80678,-31.21109,238.4337,241.516,10,-0.1090221,-0.1216654,0.06345647,0.37689,0.3162029,-1.374092,-0.0152182,-0.06912681,0.06204152,0.02372973,-0.02453927,-0.0383264,172.17.160.76,10.64.29.0,2,unknown,2,2014-11-15 17:57:12.573,8,2014-11-15 17:52:35.410,3
2014-11-15 17:57:37.918,11024,367.4667,40.10483,-88.22192,235.636,0.56,220.0781,6,10,1416095857,0.02062988,1.071564,-0.1932068,39.85441,30.08211,-31.54721,238.2879,241.3702,10,-0.06200824,-0.1624113,0.01742213,0.3878127,0.324992,-1.373791,0.03491754,-0.08732832,0.0468971,0.0756247,0.1852974,0.2012954,172.17.160.76,10.64.29.0,2,unknown,2,2014-11-15 17:57:12.573,8,2014-11-15 17:52:35.410,3
2014-11-15 17:57:37.951,11025,367.5,40.10483,-88.22192,235.636,0.56,220.0781,6,10,1416095857,0.145462,0.9954071,-0.2145233,40.09469,30.39185,-31.44638,238.4171,241.4994,10,-0.1805019,-0.04378024,0.1012861,0.3982624,0.3332984,-1.373639,-0.09303857,0.04587977,0.09053686,-0.03393373,0.03583677,-0.0937673,172.17.160.76,10.64.29.0,2,unknown,2,2014-11-15 17:57:12.573,8,2014-11-15 17:52:35.410,3
2014-11-15 17:57:37.984,11026,367.5334,40.10483,-88.22192,235.636,0.56,220.0781,6,10,1416095857,0.05519104,1.216629,-0.0451355,39.75143,30.32302,-31.64804,237.9934,241.0757,10,0.05488881,-0.1434469,0.1444621,0.4211432,0.3540719,-1.373379,0.1752527,-0.1811881,0.1499024,0.1759527,0.1752006,0.2456317,172.17.160.76,10.64.29.0,2,unknown,2,2014-11-15 17:57:12.573,8,2014-11-15 17:52:35.410,3
2014-11-15 17:57:38.018,11027,367.5667,40.10483,-88.22192,235.636,0.56,220.0781,6,10,1416095857,0.00453186,0.9009094,-0.440506,39.13356,29.77236,-31.71518,237.1881,240.2704,10,0.026842,-0.1170598,0.2604076,0.4378053,0.3661901,-1.365555,0.22449,0.09189138,0.1532789,0.02124917,0.03501091,0.00227171,172.17.160.76,10.64.29.0,2,unknown,2,2014-11-15 17:57:12.573,8,2014-11-15 17:52:35.410,3
2014-11-15 17:57:38.050,11028,367.6,40.10483,-88.22192,235.636,0.56,220.0781,6,10,1416095857,0.2799072,1.195068,0.06239319,39.20222,29.6347,-31.71518,255.3588,258.4411,11,-0.03110332,-0.3215538,0.3338515,0.4500303,0.3791143,-1.360931,0.09395308,-0.0484431,0.2761605,-0.07257003,-0.0771495,-0.2469704,172.17.160.76,10.64.29.0,2,unknown,2,2014-11-15 17:57:12.573,8,2014-11-15 17:52:35.410,3
2014-11-15 17:57:38.085,11029,367.6334,40.10483,-88.22192,235.636,0.56,220.0781,6,10,1416095857,0.08811951,1.095383,-0.3627167,38.92761,29.22171,-31.2446,257.4006,260.4829,11,0.1108301,0.08255533,0.3874606,0.5030342,0.4230731,-1.352296,0.2249233,-0.09283481,0.3157725,0.1909107,0.2188448,0.2600474,172.17.160.76,10.64.29.0,2,unknown,2,2014-11-15 17:57:12.573,8,2014-11-15 17:52:35.410,3
2014-11-15 17:57:38.118,11030,367.6667,40.10482,-88.22192,235.7426,0.6,233.7891,6,10,1416095858,0.2218323,1.009644,-0.06967163,39.06491,29.15286,-30.6395,256.4353,259.5176,11,0.07982239,0.01998916,0.402108,0.5554015,0.4791138,-1.339763,0.072276,0.1525978,0.4450143,-0.0269772,0.1105847,-0.1886292,172.17.160.76,10.64.29.0,2,unknown,2,2014-11-15 17:57:12.573,8,2014-11-15 17:52:35.410,3
2014-11-15 17:57:38.151,11031,367.7,40.10482,-88.22192,235.7426,0.6,233.7891,6,10,1416095858,0.141449,1.221207,-0.3147278,39.23655,28.70546,-29.46304,255.7254,258.8077,11,0.3531708,0.4339557,0.3618666,0.5919971,0.5239882,-1.322079,0.4202435,0.4409158,0.3741101,0.09129889,0.3001344,-0.01927311,172.17.160.76,10.64.29.0,2,unknown,2,2014-11-15 17:57:12.573,8,2014-11-15 17:52:35.410,3
2014-11-15 17:57:38.184,11032,367.7333,40.10482,-88.22192,235.7426,0.6,233.7891,6,10,1416095858,0.1044464,0.8742218,-0.4523773,39.78576,28.29247,-28.7908,255.4802,258.5625,11,0.2631693,0.2584076,0.4674274,0.6063818,0.5530674,-1.305494,0.3828117,0.4772706,0.4084138,-0.06270672,0.01536394,-0.2382381,172.17.160.76,10.64.29.0,2,unknown,2,2014-11-15 17:57:12.573,8,2014-11-15 17:52:35.410,3
2014-11-15 17:57:38.218,11033,367.7667,40.10482,-88.22192,235.7426,0.6,233.7891,6,10,1416095858,0.2670746,1.37262,-0.1104431,40.78121,27.63855,-27.07657,255.4678,258.5501,11,0.5316967,0.221314,0.4970095,0.6239901,0.5760745,-1.294581,0.3396104,0.2199903,0.5282296,0.1206981,0.008547623,-0.08352333,172.17.160.76,10.64.29.0,2,unknown,2,2014-11-15 17:57:12.573,8,2014-11-15 17:52:35.410,3
2014-11-15 17:57:38.251,11034,367.8,40.10482,-88.22192,235.7426,0.6,233.7891,6,10,1416095858,0.05004883,1.019897,-0.4395142,42.01694,26.6749,-25.3287,254.8857,257.968,11,0.4745367,0.639776,0.4686442,0.6395994,0.6051124,-1.262816,0.7310548,0.5748709,0.5509236,0.03892541,0.3328798,0.05239456,172.17.160.76,10.64.29.0,2,unknown,2,2014-11-15 17:57:12.573,8,2014-11-15 17:52:35.410,3
2014-11-15 17:57:38.285,11035,367.8333,40.10482,-88.22192,235.7426,0.6,233.7891,6,10,1416095858,0.3212585,1.006699,-0.2068329,42.70347,26.33074,-24.18588,254.7328,257.8151,11,0.3668579,0.4993187,0.4354018,0.6432865,0.6230083,-1.246751,0.5416005,0.7083418,0.484401,-0.1357336,0.07194225,-0.18093,172.17.160.76,10.64.29.0,2,unknown,2,2014-11-15 17:57:12.573,8,2014-11-15 17:52:35.410,3
2014-11-15 17:57:38.318,11036,367.8667,40.10482,-88.22192,235.7426,0.6,233.7891,6,10,1416095858,0.1429138,1.058563,-0.2674866,43.21836,25.33266,-22.26993,254.779,257.8613,11,0.2169337,0.3035956,0.2566036,0.6551633,0.6549693,-1.21492,0.4444643,0.2157901,0.4004367,0.03830438,0.2243405,0.01177197,172.17.160.76,10.64.29.0,2,unknown,2,2014-11-15 17:57:12.573,8,2014-11-15 17:52:35.410,3
2014-11-15 17:57:38.351,11037,367.9,40.10482,-88.22192,235.7426,0.6,233.7891,6,10,1416095858,0.252182,0.941391,-0.3630676,43.42432,24.85084,-21.39597,254.6399,257.7222,11,0.2066429,0.5613736,0.199618,0.6592754,0.6688709,-1.201873,0.2585236,0.4283153,0.2493986,-0.1230601,0.03244816,-0.08847573,172.17.160.76,10.64.29.0,2,unknown,2,2014-11-15 17:57:12.573,8,2014-11-15 17:52:35.410,3
2014-11-15 17:57:38.384,11038,367.9333,40.10482,-88.22192,235.7426,0.6,233.7891,6,10,1416095858,0.2789612,1.106033,-0.220459,43.21835,23.81836,-19.7825,254.5213,257.6036,11,0.3962736,0.3178073,0.1795802,0.659544,0.6861539,-1.190938,0.3321583,0.5260295,0.2485759,0.01726281,0.01267374,-0.07619267,172.17.160.76,10.64.29.0,2,unknown,2,2014-11-15 17:57:12.573,8,2014-11-15 17:52:35.410,3
2014-11-15 17:57:38.418,11039,367.9667,40.10482,-88.22192,235.7426,0.6,233.7891,6,10,1416095858,0.1183624,0.7872162,-0.4893951,44.31679,23.26769,-18.2363,254.8861,257.9684,11,0.4181006,0.3899896,0.03020957,0.6436355,0.687444,-1.171934,0.5264753,0.3931867,0.1165863,0.04099928,0.1353204,0.07912119,172.17.160.76,10.64.29.0,2,unknown,2,2014-11-15 17:57:12.573,8,2014-11-15 17:52:35.410,3
2014-11-15 17:57:38.451,11040,368,40.10482,-88.22192,235.7426,0.6,233.7891,6,10,1416095858,0.286087,0.9510803,-0.2824554,44.72869,23.26769,-17.4968,255.0582,258.1405,11,0.3790757,0.2111727,-0.1542223,0.6205732,0.6804651,-1.161915,0.4067518,0.4563314,-0.1129746,-0.05363882,-0.1673524,-0.1445184,172.17.160.76,10.64.29.0,2,unknown,2,2014-11-15 17:57:12.573,8,2014-11-15 17:52:35.410,3
2014-11-15 17:57:38.484,11041,368.0334,40.10482,-88.22192,235.7426,0.6,233.7891,6,10,1416095858,0.1952515,0.9663696,-0.3943024,45.07196,23.54301,-16.08511,255.8808,258.9631,11,0.499306,0.1456946,-0.09345139,0.5919946,0.6606807,-1.152687,0.5332231,0.1208291,-0.06957129,0.04945036,0.09639563,0.0540989,172.17.160.76,10.64.29.0,2,unknown,2,2014-11-15 17:57:12.573,8,2014-11-15 17:52:35.410,3
2014-11-15 17:57:38.518,11042,368.0667,40.10482,-88.22192,235.7426,0.6,233.7891,6,10,1416095858,0.2758484,0.7385559,-0.4325867,44.35111,23.09559,-15.17752,256.6186,259.7009,11,0.4660668,0.402222,-0.3180717,0.5490613,0.6361323,-1.136647,0.585131,0.5224423,-0.2120125,-0.1069525,-0.1078659,-0.006700445,172.17.160.76,10.64.29.0,2,unknown,2,2014-11-15 17:57:12.573,8,2014-11-15 17:52:35.410,3
2014-11-15 17:57:38.551,11043,368.1,40.10482,-88.22192,235.7426,0.6,233.7891,6,10,1416095858,0.2686615,0.8145294,-0.3827667,44.04218,23.06116,-14.60617,257.1222,260.2045,11,0.4263388,0.1783205,-0.2808886,0.5230853,0.621528,-1.131666,0.5000294,0.3836274,-0.3079582,0.02829164,-0.166566,-0.0869424,172.17.160.76,10.64.29.0,2,unknown,2,2014-11-15 17:57:12.573,8,2014-11-15 17:52:35.410,3
2014-11-15 17:57:38.584,11044,368.1334,40.10482,-88.22192,235.7426,0.6,233.7891,6,10,1416095858,0.1815491,0.8446198,-0.4198914,43.87055,22.88909,-14.23642,258.5104,261.5927,11,0.4279378,0.3036749,-0.4256576,0.4647877,0.5749387,-1.119026,0.5053096,0.2155413,-0.3343388,-0.1269047,-0.1145956,0.0555806,172.17.160.76,10.64.29.0,2,unknown,2,2014-11-15 17:57:12.573,8,2014-11-15 17:52:35.410,3
2014-11-15 17:57:38.618,11045,368.1667,40.10482,-88.22192,235.7426,0.6,233.7891,6,10,1416095858,0.2574158,0.8220367,-0.3522339,43.76757,23.19883,-13.12717,259.4254,262.5077,11,0.4410158,0.248661,-0.5342674,0.4363745,0.5570146,-1.115181,0.492005,0.4249524,-0.4648101,-0.05106681,-0.05337067,-0.04639029,172.17.160.76,10.64.29.0,2,unknown,2,2014-11-15 17:57:12.573,8,2014-11-15 17:52:35.410,3
2014-11-15 17:57:38.651,11046,368.2,40.10482,-88.22192,235.7426,0.6,233.7891,6,10,1416095858,0.103302,0.7840271,-0.4644775,43.49296,23.40532,-12.85831,260.2762,263.3585,11,0.3290344,0.05294258,-0.5688462,0.3736937,0.5066338,-1.109472,0.423595,-0.01211067,-0.5156838,-0.02381096,-0.1078967,0.008648243,172.17.160.76,10.64.29.0,2,unknown,2,2014-11-15 17:57:12.573,8,2014-11-15 17:52:35.410,3
2014-11-15 17:57:38.684,11047,368.2333,40.10482,-88.22192,235.7426,0.6,233.7891,6,10,1416095858,0.2324219,0.8874817,-0.3194427,42.63481,23.50858,-11.95071,261.8275,264.9098,11,0.3612991,0.2502349,-0.6125103,0.3290815,0.4697074,-1.106719,0.3802097,0.2308949,-0.5609469,-0.09929232,-0.1102077,-0.06535384,172.17.160.76,10.64.29.0,2,unknown,2,2014-11-15 17:57:12.573,8,2014-11-15 17:52:35.410,3
2014-11-15 17:57:38.718,11048,368.2667,40.10482,-88.22192,235.7426,0.6,233.7891,6,10,1416095858,0.1287384,0.8821411,-0.4256592,41.77666,24.02483,-11.58102,263.449,266.5313,11,0.4342806,0.1686015,-0.4423148,0.265637,0.4264616,-1.100248,0.4739116,0.3343912,-0.4981255,0.1348023,-0.1228261,0.02778956,172.17.160.76,10.64.29.0,2,unknown,2,2014-11-15 17:57:12.573,8,2014-11-15 17:52:35.410,3
2014-11-15 17:57:38.750,11049,368.3,40.10482,-88.22192,235.7426,0.6,233.7891,6,10,1416095858,0.1930084,0.8452454,-0.3397064,41.2961,24.09366,-11.44656,264.4159,267.4982,11,0.4050436,0.1404695,-0.6525269,0.223143,0.3961968,-1.091954,0.509223,0.2158731,-0.5721242,-0.1422571,-0.01168955,-0.0460396,172.17.160.76,10.64.29.0,2,unknown,2,2014-11-15 17:57:12.573,8,2014-11-15 17:52:35.410,3
2014-11-15 17:57:38.784,11050,368.3333,40.10482,-88.22192,235.7426,0.6,233.7891,6,10,1416095858,-0.01353455,0.933609,-0.5915375,40.40363,24.30015,-11.44656,266.0459,269.1282,11,0.2475403,0.1387986,-0.7432334,0.1559717,0.3445595,-1.086531,0.3401147,0.2320001,-0.698784,0.03945895,0.03119693,0.04946217,172.17.160.76,10.64.29.0,2,unknown,2,2014-11-15 17:57:12.573,8,2014-11-15 17:52:35.410,3
2014-11-15 17:57:38.818,11051,368.3667,40.10482,-88.22192,235.7426,0.6,233.7891,6,10,1416095858,0.2219849,0.791748,-0.2835236,39.27087,24.54105,-10.80789,267.0577,270.14,10,0.1536947,0.177251,-0.7225114,0.1221586,0.3184776,-1.085461,0.2857948,0.1573813,-0.7340025,-0.1015168,-0.03744225,-0.1242607,172.17.160.76,10.64.29.0,2,unknown,2,2014-11-15 17:57:12.573,8,2014-11-15 17:52:35.410,3
2014-11-15 17:57:38.851,11052,368.4,40.10482,-88.22192,235.7426,0.6,233.7891,6,10,1416095858,0.05863953,1.115494,-0.4397278,38.72165,24.60989,-10.47171,268.0386,271.1209,10,-0.0509998,-0.2580417,-0.8291238,0.06236733,0.272089,-1.088278,0.04777767,-0.06748433,-0.6960822,0.02306573,0.1134689,0.1547202,172.17.160.76,10.64.29.0,2,unknown,2,2014-11-15 17:57:12.573,8,2014-11-15 17:52:35.410,3
2014-11-15 17:57:38.884,11053,368.4333,40.10482,-88.22192,235.7426,0.6,233.7891,6,10,1416095858,0.1579895,0.6946716,-0.3451385,37.86351,25.19497,-9.900238,270.1042,273.1866,10,-0.1526891,-0.088222,-1.001932,0.007547447,0.2190677,-1.094341,-0.02715104,-0.04167286,-0.9419296,-0.02725159,0.1141662,-0.06401712,172.17.160.76,10.64.29.0,2,unknown,2,2014-11-15 17:57:12.573,8,2014-11-15 17:52:35.410,3
2014-11-15 17:57:38.918,11054,368.4667,40.10482,-88.22192,235.7426,0.6,233.7891,6,10,1416095858,0.1447754,0.992981,-0.3523254,36.83372,25.95213,-10.03476,271.6792,274.7615,10,-0.4302683,-0.7939703,-1.047068,-0.07561963,0.137386,-1.109741,-0.3716266,-0.4190923,-0.9914554,0.1733077,-0.1086115,0.1468017,172.17.160.76,10.64.29.0,2,unknown,2,2014-11-15 17:57:12.573,8,2014-11-15 17:52:35.410,3
2014-11-15 17:57:38.951,11055,368.5,40.10482,-88.22192,235.7426,0.6,233.7891,6,10,1416095858,-0.0660553,0.755127,-0.5299377,36.18153,26.7437,-9.866669,272.869,275.9513,10,-0.2984362,-0.4082876,-1.183523,-0.1429301,0.05735192,-1.12374,-0.3065796,-0.6640268,-1.059862,-0.07818614,0.1419469,0.02214755,172.17.160.76,10.64.29.0,2,unknown,2,2014-11-15 17:57:12.573,8,2014-11-15 17:52:35.410,3
2014-11-15 17:57:38.984,11056,368.5334,40.10482,-88.22192,235.7426,0.6,233.7891,6,10,1416095858,0.1781006,0.7767792,-0.3402863,34.19062,27.91384,-9.732269,274.8995,277.9818,10,-0.3068808,-0.4457541,-1.220841,-0.1949905,0.001205222,-1.129568,-0.2313817,-0.3397313,-1.167769,-0.1618916,0.005852273,-0.05685159,172.17.160.76,10.64.29.0,2,unknown,2,2014-11-15 17:57:12.573,8,2014-11-15 17:52:35.410,3
2014-11-15 17:57:39.018,11057,368.5667,40.10482,-88.22192,235.7426,0.6,233.7891,6,10,1416095858,-0.2395782,0.834137,-0.4522705,32.37135,28.77423,-9.362579,277.3224,280.4047,10,0.01212164,-0.3225083,-0.9199256,-0.3266434,-0.1399806,-1.135223,-0.01585838,-0.4291785,-0.8973076,0.2541208,0.005541991,0.06457725,172.17.160.76,10.64.29.0,2,unknown,2,2014-11-15 17:57:12.573,8,2014-11-15 17:52:35.410,3
2014-11-15 17:57:39.051,11058,368.6,40.10482,-88.22192,235.7426,0.6,233.7891,6,10,1416095858,-0.00958252,0.7966461,-0.2080536,31.44455,29.22165,-9.059967,278.6527,281.735,10,0.1347717,-0.5590423,-0.9980572,-0.3881075,-0.2041326,-1.127114,0.1847017,-0.3444628,-0.9230883,-0.09149224,-0.08442099,0.03560496,172.17.160.76,10.64.29.0,2,unknown,2,2014-11-15 17:57:12.573,8,2014-11-15 17:52:35.410,3
2014-11-15 17:57:39.084,11059,368.6334,40.10482,-88.22192,235.7426,0.6,233.7891,6,10,1416095858,0.09135437,0.8335571,-0.1508484,29.62527,30.15089,-8.152435,281.8876,284.9699,10,-0.2325709,0.02182461,-0.6443952,-0.4695391,-0.2860155,-1.113259,-0.06250732,0.166372,-0.8313696,0.2418012,-0.01869458,0.334958,172.17.160.76,10.64.29.0,2,unknown,2,2014-11-15 17:57:12.573,8,2014-11-15 17:52:35.410,3
2014-11-15 17:57:39.118,11060,368.6667,40.10482,-88.22192,235.4343,0.48,230.2734,6,10,1416095859,-0.2593842,0.8105774,-0.6070251,28.01196,30.87363,-7.312164,285.1079,288.1902,10,-0.05543317,-0.1761718,-0.3987759,-0.4962583,-0.3091856,-1.112545,-0.1076591,-0.08763205,-0.4174988,0.1391254,-0.09154491,0.07386929,172.17.160.76,10.64.29.0,2,unknown,2,2014-11-15 17:57:12.573,8,2014-11-15 17:52:35.410,3
2014-11-15 17:57:39.151,11061,368.7,40.10482,-88.22192,235.4343,0.48,230.2734,6,10,1416095859,0.03703308,0.8690491,-0.124054,27.49707,30.63271,-7.076874,285.7485,288.8308,10,0.07931426,-0.149618,-0.5328873,-0.5357983,-0.343824,-1.101834,0.1499511,0.139404,-0.589228,0.1031112,-0.08242176,-0.0275859,172.17.160.76,10.64.29.0,2,unknown,2,2014-11-15 17:57:12.573,8,2014-11-15 17:52:35.410,3
2014-11-15 17:57:39.184,11062,368.7333,40.10482,-88.22192,235.4343,0.48,230.2734,6,10,1416095859,-0.09843445,0.7683258,-0.3557434,26.63892,30.94246,-6.639862,287.3557,290.438,10,-0.1599361,0.219983,-0.2880273,-0.5601836,-0.3678695,-1.093063,0.1406346,0.01134541,-0.3743823,0.1028149,-0.0136038,0.3470218,172.17.160.76,10.64.29.0,2,unknown,2,2014-11-15 17:57:12.573,8,2014-11-15 17:52:35.410,3
2014-11-15 17:57:39.218,11063,368.7667,40.10482,-88.22192,235.4343,0.48,230.2734,6,10,1416095859,0.002838135,0.8359528,-0.3146667,26.12403,31.32104,-6.40451,288.7012,291.7835,10,-0.129044,-0.1563057,-0.02263101,-0.5818475,-0.3840641,-1.092055,-0.1258855,-0.3084214,-0.1001444,0.1915731,-0.07298489,0.06319622,172.17.160.76,10.64.29.0,2,unknown,2,2014-11-15 17:57:12.573,8,2014-11-15 17:52:35.410,3
2014-11-15 17:57:39.251,11064,368.8,40.10482,-88.22192,235.4343,0.48,230.2734,6,10,1416095859,-0.07337952,0.743103,-0.3076324,26.02105,31.83728,-6.572601,289.0144,292.0967,10,-0.2324218,0.02891021,0.01482182,-0.5855764,-0.3906353,-1.094083,-0.1075447,0.2371629,-0.03365124,-0.02107727,-0.1467474,0.07576848,172.17.160.76,10.64.29.0,2,unknown,2,2014-11-15 17:57:12.573,8,2014-11-15 17:52:35.410,3
2014-11-15 17:57:39.284,11065,368.8333,40.10482,-88.22192,235.4343,0.48,230.2734,6,10,1416095859,-0.09480286,0.814682,-0.3415985,26.29566,31.69962,-6.236481,289.193,292.2753,10,-0.1113316,-0.4214378,0.0459643,-0.5879486,-0.3884088,-1.097059,-0.1654128,0.09741542,0.03057988,-0.09123154,-0.2287215,0.07581254,172.17.160.76,10.64.29.0,2,unknown,2,2014-11-15 17:57:12.573,8,2014-11-15 17:52:35.410,3
2014-11-15 17:57:39.318,11066,368.8667,40.10482,-88.22192,235.4343,0.48,230.2734,6,10,1416095859,-0.0566864,0.8881683,-0.2151337,26.50162,31.56196,-6.370941,290.0344,293.1167,15,-0.2840778,0.1759982,0.2132255,-0.5830444,-0.3919517,-1.102655,-0.1518942,0.161068,0.1593036,-0.0566836,-0.1634503,0.110186,172.17.160.76,10.64.29.0,2,unknown,2,2014-11-15 17:57:12.573,8,2014-11-15 17:52:35.410,3
2014-11-15 17:57:39.351,11067,368.9,40.10482,-88.22192,235.4343,0.48,230.2734,6,10,1416095859,-0.1429749,0.7883148,-0.5051727,26.6046,31.32105,-6.135651,289.9689,293.0512,15,-0.2633653,-0.2334255,0.3107712,-0.5728757,-0.3803166,-1.111827,-0.2229116,-0.1545059,0.2969618,0.07536083,0.01558431,0.1431648,172.17.160.76,10.64.29.0,2,unknown,2,2014-11-15 17:57:12.573,8,2014-11-15 17:52:35.410,3
2014-11-15 17:57:39.385,11068,368.9333,40.10482,-88.22192,235.4343,0.48,230.2734,6,10,1416095859,0.01776123,0.7823486,-0.2330627,26.84488,31.2178,-6.707062,287.5906,290.6729,15,-0.3520515,0.0886348,0.4603452,-0.5513716,-0.3585383,-1.12472,-0.2367246,0.3031621,0.3981412,0.06472106,-0.1754623,0.06645515,172.17.160.76,10.64.29.0,2,unknown,2,2014-11-15 17:57:12.573,8,2014-11-15 17:52:35.410,3
2014-11-15 17:57:39.418,11069,368.9667,40.10482,-88.22192,235.4343,0.48,230.2734,6,10,1416095859,-0.1712036,0.8749695,-0.3777161,27.22246,31.0457,-7.076752,286.0441,289.1264,15,-0.4561755,-0.2501955,0.6118042,-0.5337995,-0.3405658,-1.133782,-0.3377721,-0.04388325,0.5877588,0.1591309,-0.1236706,0.1658655,172.17.160.76,10.64.29.0,2,unknown,2,2014-11-15 17:57:12.573,8,2014-11-15 17:52:35.410,3
2014-11-15 17:57:39.451,11070,369,40.10482,-88.22192,235.4343,0.48,230.2734,6,10,1416095859,-0.1108856,0.8333588,-0.2806091,27.39409,31.01129,-7.043182,285.425,288.5074,15,-0.4302816,0.04497919,0.5846017,-0.4862823,-0.3006692,-1.156868,-0.3803793,0.1231896,0.6185195,-0.03041814,-0.06279521,0.1024117,172.17.160.76,10.64.29.0,2,unknown,2,2014-11-15 17:57:12.573,8,2014-11-15 17:52:35.410,3
2014-11-15 17:57:39.484,11071,369.0334,40.10482,-88.22192,235.4343,0.48,230.2734,6,10,1416095859,0.08769226,0.7909088,-0.3100891,28.25224,31.2522,-7.211334,283.7043,286.7867,15,-0.4848282,0.09016292,0.6551017,-0.4618345,-0.2759083,-1.167389,-0.3676643,0.1180537,0.6428589,-0.003945599,-0.0863701,0.09709796,172.17.160.76,10.64.29.0,2,unknown,2,2014-11-15 17:57:12.573,8,2014-11-15 17:52:35.410,3
2014-11-15 17:57:39.518,11072,369.0667,40.10482,-88.22192,235.4343,0.48,230.2734,6,10,1416095859,-0.133255,0.8724213,-0.2949066,29.69393,31.32104,-6.942413,282.0992,285.1815,15,-0.5003211,0.05007116,0.8332775,-0.3617992,-0.1736582,-1.199147,-0.4442973,0.2705542,0.9942378,0.03252036,-0.1379062,0.04899047,172.17.160.76,10.64.29.0,2,unknown,2,2014-11-15 17:57:12.573,8,2014-11-15 17:52:35.410,3
2014-11-15 17:57:39.551,11073,369.1,40.10482,-88.22192,235.4343,0.48,230.2734,6,10,1416095859,-0.00050354,0.806015,-0.3344574,30.51775,31.18337,-7.480255,280.3178,283.4001,15,-0.4755692,0.2144905,0.7979603,-0.2935753,-0.1054994,-1.215558,-0.4117701,0.127582,0.7768207,-0.04339094,-0.0217157,0.06319607,172.17.160.76,10.64.29.0,2,unknown,2,2014-11-15 17:57:12.573,8,2014-11-15 17:52:35.410,3
2014-11-15 17:57:39.584,11074,369.1334,40.10482,-88.22192,235.4343,0.48,230.2734,6,10,1416095859,0.03701782,0.8266602,-0.2766418,31.65051,30.39181,-7.513824,277.6398,280.7221,15,-0.3583789,0.6745302,0.9400597,-0.2238533,-0.03171936,-1.229183,-0.3885832,0.3869325,0.9309529,0.0101209,-0.1362004,0.0003816409,172.17.160.76,10.64.29.0,2,unknown,2,2014-11-15 17:57:12.573,8,2014-11-15 17:52:35.410,3
2014-11-15 17:57:39.618,11075,369.1667,40.10482,-88.22192,235.4343,0.48,230.2734,6,10,1416095859,0.1070862,0.9872742,-0.2744598,32.78326,29.80674,-7.950775,273.0663,276.1486,15,-0.2586374,0.4259998,0.6783143,-0.1151648,0.09495372,-1.239515,-0.2045498,0.5001391,0.7366086,-0.0618131,-0.01468772,0.04018968,172.17.160.76,10.64.29.0,2,unknown,2,2014-11-15 17:57:12.573,8,2014-11-15 17:52:35.410,3
2014-11-15 17:57:39.651,11076,369.2,40.10482,-88.22192,235.4343,0.48,230.2734,6,10,1416095859,0.1207886,0.6889191,-0.2529449,33.46978,29.73791,-7.950714,271.1379,274.2202,15,-0.4278888,0.5324479,0.9756621,-0.02100749,0.2004863,-1.245576,-0.3617634,0.4588872,0.8930178,0.05119176,-0.2905521,0.02992976,172.17.160.76,10.64.29.0,2,unknown,2,2014-11-15 17:57:12.573,8,2014-11-15 17:52:35.410,3
2014-11-15 17:57:39.685,11077,369.2333,40.10482,-88.22192,235.4343,0.48,230.2734,6,10,1416095859,0.2073517,1.070663,-0.1542358,35.32338,29.04959,-7.614532,270.0164,273.0988,15,-0.3806336,0.06738863,0.7416331,0.07078049,0.3057147,-1.248464,-0.3230883,0.4751582,0.7984866,-0.07379717,0.1402611,0.04810828,172.17.160.76,10.64.29.0,2,unknown,2,2014-11-15 17:57:12.573,8,2014-11-15 17:52:35.410,3
2014-11-15 17:57:39.718,11078,369.2667,40.10482,-88.22192,235.4343,0.48,230.2734,6,10,1416095859,0.06758118,0.6687317,-0.3002319,36.49047,28.6366,-7.345612,268.089,271.1713,15,-0.5865189,-0.2866824,0.6970187,0.1216028,0.3565171,-1.249832,-0.3486789,0.03018048,0.6869065,0.09724449,0.1217319,0.1414082,172.17.160.76,10.64.29.0,2,unknown,2,2014-11-15 17:57:12.573,8,2014-11-15 17:52:35.410,3
2014-11-15 17:57:39.750,11079,369.3,40.10482,-88.22192,235.4343,0.48,230.2734,6,10,1416095859,0.1727448,0.9819794,-0.2149506,37.17699,28.08594,-7.211212,267.1019,270.1842,15,-0.6824558,0.2105112,0.8210052,0.2358381,0.4601371,-1.257329,-0.6231946,0.06572621,0.8749424,-0.03842269,-0.2508,-0.002872139,172.17.160.76,10.64.29.0,2,unknown,2,2014-11-15 17:57:12.573,8,2014-11-15 17:52:35.410,3
2014-11-15 17:57:39.784,11080,369.3333,40.10482,-88.22192,235.4343,0.48,230.2734,6,10,1416095859,0.1538086,0.9012146,-0.3693848,38.44705,27.84502,-7.513641,264.5551,267.6374,15,-0.2789477,-0.09869941,0.5631102,0.3264757,0.5553238,-1.259535,-0.3430818,0.3094972,0.6692495,0.07329097,0.2154102,0.1068867,172.17.160.76,10.64.29.0,2,unknown,2,2014-11-15 17:57:12.573,8,2014-11-15 17:52:35.410,3
2014-11-15 17:57:39.818,11081,369.3667,40.10482,-88.22192,235.4343,0.48,230.2734,6,10,1416095859,0.2826843,0.8856812,-0.134201,39.75143,27.01904,-7.580902,261.4358,264.5181,15,-0.4874709,0.1521224,0.8401357,0.4150051,0.6392076,-1.25394,-0.3735401,-0.03070455,0.784335,-0.05080604,-0.2742704,-0.1543688,172.17.160.76,10.64.29.0,2,unknown,2,2014-11-15 17:57:12.573,8,2014-11-15 17:52:35.410,3
2014-11-15 17:57:39.851,11082,369.4,40.10482,-88.22192,235.4343,0.48,230.2734,6,10,1416095859,0.2197113,1.376129,-0.02607727,40.33498,26.77811,-7.547211,261.1747,264.257,15,-0.3141478,0.1515488,0.6335562,0.4747277,0.6985718,-1.250097,-0.4204695,0.2206198,0.8558919,-0.0283242,-0.2728526,-0.09392094,172.17.160.76,10.64.29.0,2,unknown,2,2014-11-15 17:57:12.573,8,2014-11-15 17:52:35.410,3
2014-11-15 17:57:39.884,11083,369.4333,40.10482,-88.22192,235.4343,0.48,230.2734,6,10,1416095859,0.1726227,0.5818787,-0.4372864,41.39908,26.5372,-7.648102,258.2821,261.3644,15,-0.4586387,-0.3371993,0.3459848,0.5497975,0.7754761,-1.241291,-0.1398256,-0.1490818,0.3179072,-0.006809117,0.4299265,0.2049834,172.17.160.76,10.64.29.0,2,unknown,2,2014-11-15 17:57:12.573,8,2014-11-15 17:52:35.410,3
2014-11-15 17:57:39.917,11084,369.4667,40.10482,-88.22192,235.4343,0.48,230.2734,6,10,1416095859,0.2926636,1.063309,-0.235611,42.56616,25.64238,-7.782562,257.2674,260.3497,15,-0.3041434,0.03234889,0.4672998,0.6134415,0.8297427,-1.239493,-0.3374226,0.1276839,0.5132942,0.09314021,-0.07649396,-0.165748,172.17.160.76,10.64.29.0,2,unknown,2,2014-11-15 17:57:12.573,8,2014-11-15 17:52:35.410,3
2014-11-15 17:57:39.951,11085,369.5,40.10482,-88.22192,235.4343,0.48,230.2734,6,10,1416095859,0.1940613,0.8432159,-0.246933,43.11538,25.71121,-8.185944,255.7163,258.7986,15,-0.2796897,-0.5961475,-0.0243831,0.6492015,0.8606705,-1.234108,-0.1187846,-0.4182748,-0.01158734,-0.1087995,0.05803827,0.1272082,172.17.160.76,10.64.29.0,2,unknown,2,2014-11-15 17:57:12.573,8,2014-11-15 17:52:35.410,3
2014-11-15 17:57:39.984,11086,369.5334,40.10482,-88.22192,235.4343,0.48,230.2734,6,10,1416095859,0.2084503,0.9553223,-0.2009125,43.8019,25.22939,-9.194366,253.9666,257.0489,15,-0.2287264,-0.08464644,0.1744938,0.6703272,0.867887,-1.236714,-0.2301925,-0.2209914,0.2170258,0.07744321,-0.02715471,-0.167303,172.17.160.76,10.64.29.0,2,unknown,2,2014-11-15 17:57:12.573,8,2014-11-15 17:52:35.410,3
2014-11-15 17:57:40.018,11087,369.5667,40.10482,-88.22192,235.4343,0.48,230.2734,6,10,1416095859,0.2305145,0.9632111,-0.213501,44.45409,25.33263,-10.2363,250.4013,253.4836,15,0.009207879,-0.1140147,0.09914443,0.6834304,0.8791274,-1.235434,-0.03059839,-0.08435927,0.1713541,-0.04502574,0.01103124,0.009002636,172.17.160.76,10.64.29.0,2,unknown,2,2014-11-15 17:57:12.573,8,2014-11-15 17:52:35.410,3
2014-11-15 17:57:40.051,11088,369.6,40.10482,-88.22192,235.4343,0.48,230.2734,6,10,1416095859,0.2577972,1.004745,-0.2706757,44.52274,24.98848,-10.50522,249.578,252.6603,15,-0.06350494,-0.4540988,0.08594953,0.6807113,0.8700439,-1.233533,0.013311,-0.3787142,0.02952386,-0.05664151,0.08248992,-0.08982611,172.17.160.76,10.64.29.0,2,unknown,2,2014-11-15 17:57:12.573,8,2014-11-15 17:52:35.410,3
2014-11-15 17:57:40.084,11089,369.6334,40.10482,-88.22192,235.4343,0.48,230.2734,6,10,1416095859,0.4069824,1.078781,-0.08364868,45.03763,24.47222,-11.27829,248.6246,251.7069,15,0.1406453,-0.1084716,-0.003220827,0.6878572,0.8625749,-1.230365,0.03986385,-0.2028235,0.1067773,0.04391678,-0.1739339,0.1255636,172.17.160.76,10.64.29.0,2,unknown,2,2014-11-15 17:57:12.573,8,2014-11-15 17:52:35.410,3
2014-11-15 17:57:40.118,11090,369.6667,40.10482,-88.22192,235.5699,0.43,218.6719,6,10,1416095860,0.05477905,0.9644623,-0.4718933,45.48387,24.43781,-12.58914,247.2466,250.3289,15,0.06997748,-0.355719,0.03607811,0.6769015,0.8501891,-1.226361,0.2621263,-0.100973,-0.04106476,0.1350095,0.3360775,0.2413143,172.17.160.76,10.64.29.0,2,unknown,2,2014-11-15 17:57:12.573,8,2014-11-15 17:52:35.410,3
2014-11-15 17:57:40.151,11091,369.7,40.10482,-88.22192,235.5699,0.43,218.6719,6,10,1416095860,0.4143372,1.001678,-0.1505127,45.58685,24.12807,-13.49667,246.2684,249.3507,15,0.08810855,-0.1364407,0.08917755,0.6684118,0.8347199,-1.222769,0.02922878,-0.2273707,0.09182688,-0.1750374,-0.2385704,-0.2237566,172.17.160.76,10.64.29.0,2,unknown,2,2014-11-15 17:57:12.573,8,2014-11-15 17:52:35.410,3
2014-11-15 17:57:40.184,11092,369.7333,40.10482,-88.22192,235.5699,0.43,218.6719,6,10,1416095860,0.2324219,1.190582,-0.1921082,46.27337,23.64623,-14.70682,245.2217,248.304,15,0.3708702,-0.1680923,-0.004396879,0.6646435,0.8281827,-1.217381,0.3543672,-0.1073544,0.1114138,0.159361,0.06348236,0.08352833,172.17.160.76,10.64.29.0,2,unknown,2,2014-11-15 17:57:12.573,8,2014-11-15 17:52:35.410,3
2014-11-15 17:57:40.218,11093,369.7667,40.10482,-88.22192,235.5699,0.43,218.6719,6,10,1416095860,0.1972809,0.6941986,-0.3351746,46.27337,23.09558,-15.2446,244.4946,247.5769,15,0.04884797,-0.1943687,0.01365429,0.6354764,0.7959798,-1.20543,0.257509,-0.1279194,0.05540946,-0.1671217,-0.180514,-0.1934343,172.17.160.76,10.64.29.0,2,unknown,2,2014-11-15 17:57:12.573,8,2014-11-15 17:52:35.410,3
2014-11-15 17:57:40.251,11094,369.8,40.10482,-88.22192,235.5699,0.43,218.6719,6,10,1416095860,0.4654999,1.323578,0.03184509,46.51365,22.64818,-16.42105,243.6624,246.7447,15,0.2117711,-0.3462264,0.03559714,0.630951,0.7849784,-1.202167,0.158189,-0.3488673,0.05780222,0.1294193,-0.06546661,0.144049,172.17.160.76,10.64.29.0,2,unknown,2,2014-11-15 17:57:12.573,8,2014-11-15 17:52:35.410,3
2014-11-15 17:57:40.284,11095,369.8333,40.10482,-88.22192,235.5699,0.43,218.6719,6,10,1416095860,0.02436829,0.7702789,-0.472229,46.30769,22.09752,-17.76559,242.362,245.4444,15,0.09472225,-0.2817726,-0.01988369,0.6052771,0.75279,-1.191837,0.3249537,-0.1297276,-0.03932472,-0.1264183,0.1381037,-0.05182156,172.17.160.76,10.64.29.0,2,unknown,2,2014-11-15 17:57:12.573,8,2014-11-15 17:52:35.410,3
2014-11-15 17:57:40.318,11096,369.8667,40.10482,-88.22192,235.5699,0.43,218.6719,6,10,1416095860,0.3948975,1.134964,-0.09767151,46.54797,21.78777,-18.80753,241.7819,244.8642,15,0.02743162,-0.5039185,-0.03353932,0.6017253,0.7410626,-1.190711,-0.04305747,-0.3695962,-0.02647213,-0.05588663,-0.3735641,-0.1790075,172.17.160.76,10.64.29.0,2,unknown,2,2014-11-15 17:57:12.573,8,2014-11-15 17:52:35.410,3
2014-11-15 17:57:40.351,11097,369.9,40.10482,-88.22192,235.5699,0.43,218.6719,6,10,1416095860,0.1116943,0.9810333,-0.3719177,46.34202,21.71894,-19.61423,241.0047,244.087,15,0.1989094,-0.1230173,-0.2381031,0.5874561,0.7142129,-1.18686,0.3590606,-0.406525,-0.1077836,0.1967084,0.416812,0.2849077,172.17.160.76,10.64.29.0,2,unknown,2,2014-11-15 17:57:12.573,8,2014-11-15 17:52:35.410,3
2014-11-15 17:57:40.384,11098,369.9333,40.10482,-88.22192,235.5699,0.43,218.6719,6,10,1416095860,0.2580261,0.9061584,-0.3232117,46.23904,21.75336,-21.1268,239.9136,242.9959,15,-0.02543052,-0.4581521,-0.1679086,0.5615458,0.6862899,-1.184227,0.1728387,-0.1762632,-0.1610709,-0.2152205,-0.1110683,-0.1443925,172.17.160.76,10.64.29.0,2,unknown,2,2014-11-15 17:57:12.573,8,2014-11-15 17:52:35.410,3
2014-11-15 17:57:40.418,11099,369.9667,40.10482,-88.22192,235.5699,0.43,218.6719,6,10,1416095860,0.1214752,1.040298,-0.2990723,46.13606,21.78777,-22.97543,237.64,240.7223,15,0.1585947,-0.3268247,-0.3547269,0.54271,0.646513,-1.186526,0.1353717,-0.6410892,-0.2281289,0.1047805,0.1274168,0.1053337,172.17.160.76,10.64.29.0,2,unknown,2,2014-11-15 17:57:12.573,8,2014-11-15 17:52:35.410,3
2014-11-15 17:57:40.451,11100,370,40.10482,-88.22192,235.5699,0.43,218.6719,6,10,1416095860,0.2128296,0.8320923,-0.4658813,45.96443,21.82218,-23.81577,236.6261,239.7084,15,0.1029685,-0.3508054,-0.2973249,0.5123564,0.6084237,-1.186838,0.2510247,-0.2070226,-0.2899652,-0.09263301,0.1131094,0.008300505,172.17.160.76,10.64.29.0,2,unknown,2,2014-11-15 17:57:12.573,8,2014-11-15 17:52:35.410,3
2014-11-15 17:57:40.484,11101,370.0334,40.10482,-88.22192,235.5699,0.43,218.6719,6,10,1416095860,0.3586426,1.076126,-0.1881256,45.44954,21.6501,-25.3284,237.2255,240.3078,15,0.3381674,-0.560711,-0.2186383,0.4858563,0.5755207,-1.186487,0.1825166,-0.3957884,-0.245059,0.008771996,-0.09496544,-0.1513587,172.17.160.76,10.64.29.0,2,unknown,2,2014-11-15 17:57:12.573,8,2014-11-15 17:52:35.410,3
2014-11-15 17:57:40.518,11102,370.0667,40.10482,-88.22192,235.5699,0.43,218.6719,6,10,1416095860,0.08499146,0.892395,-0.526413,45.41521,21.40919,-25.96695,236.7341,239.8165,15,0.4259976,-0.1306249,-0.2464239,0.4571228,0.5351943,-1.180519,0.4702853,-0.2988845,-0.1989212,0.07191531,0.1900647,0.03046387,172.17.160.76,10.64.29.0,2,unknown,2,2014-11-15 17:57:12.573,8,2014-11-15 17:52:35.410,3
2014-11-15 17:57:40.551,11103,370.1,40.10482,-88.22192,235.5699,0.43,218.6719,6,10,1416095860,0.2718964,1.022095,-0.3309021,45.72415,20.82411,-27.34506,236.5027,239.585,15,0.2913804,-0.6312507,-0.2761546,0.4133269,0.4879102,-1.168619,0.4031907,-0.3746077,-0.2404667,-0.06172644,-0.08067235,-0.1521295,172.17.160.76,10.64.29.0,2,unknown,2,2014-11-15 17:57:12.573,8,2014-11-15 17:52:35.410,3
2014-11-15 17:57:40.584,11104,370.1334,40.10482,-88.22192,235.5699,0.43,218.6719,6,10,1416095860,0.09277344,1.047958,-0.3804626,45.44954,20.06695,-28.95847,236.3145,239.3968,15,0.2331944,-0.1639165,-0.3053202,0.3739608,0.4327388,-1.160913,0.3276682,-0.2483047,-0.2639329,0.08782857,0.2641985,0.13693,172.17.160.76,10.64.29.0,2,unknown,2,2014-11-15 17:57:12.573,8,2014-11-15 17:52:35.410,3
2014-11-15 17:57:40.618,11105,370.1667,40.10482,-88.22192,235.5699,0.43,218.6719,6,10,1416095860,0.279068,1.018692,-0.4389648,44.866,19.75719,-30.26944,236.2241,239.3064,15,0.03035711,-0.4452209,-0.281628,0.3460145,0.4030705,-1.157452,0.1753135,-0.2399438,-0.2919785,-0.05063637,0.1022534,-0.1950446,172.17.160.76,10.64.29.0,2,unknown,2,2014-11-15 17:57:12.573,8,2014-11-15 17:52:35.410,3
2014-11-15 17:57:40.651,11106,370.2,40.10482,-88.22192,235.5699,0.43,218.6719,6,10,1416095860,0.2196045,1.21788,-0.3890991,44.24813,19.82603,-30.60556,236.0942,239.1765,15,0.07293253,-0.07459408,-0.1651956,0.3329138,0.3838485,-1.157606,0.06939981,-0.3528706,-0.1966433,0.1286972,0.1028475,-0.06665125,172.17.160.76,10.64.29.0,2,unknown,2,2014-11-15 17:57:12.573,8,2014-11-15 17:52:35.410,3
2014-11-15 17:57:40.684,11107,370.2333,40.10482,-88.22192,235.5699,0.43,218.6719,6,10,1416095860,0.2169037,1.021866,-0.5087738,44.48842,19.99813,-30.70639,236.9405,240.0228,15,-0.02319933,0.08667364,-0.06208414,0.3171586,0.3692943,-1.154821,0.1067275,0.1751112,-0.06768647,0.07374787,0.3031577,-0.01225885,172.17.160.76,10.64.29.0,2,unknown,2,2014-11-15 17:57:12.573,8,2014-11-15 17:52:35.410,3
2014-11-15 17:57:40.718,11108,370.2667,40.10482,-88.22192,235.5699,0.43,218.6719,6,10,1416095860,0.2514496,1.126373,-0.2675476,44.24813,19.61954,-30.60556,237,240.0823,15,-0.1313207,0.2688317,0.1335312,0.3199512,0.3734752,-1.155008,-0.05817619,-0.03270962,0.1218418,0.02736018,0.07616848,-0.07174758,172.17.160.76,10.64.29.0,2,unknown,2,2014-11-15 17:57:12.573,8,2014-11-15 17:52:35.410,3
2014-11-15 17:57:40.751,11109,370.3,40.10482,-88.22192,235.5699,0.43,218.6719,6,10,1416095860,0.1141052,0.9355621,-0.4698944,44.45409,19.55071,-30.13498,237.4172,240.4995,15,-0.3073674,0.1511147,0.1526772,0.331981,0.3918142,-1.155308,-0.08994757,0.3585509,0.1516196,0.0973146,0.2114539,0.1055005,172.17.160.76,10.64.29.0,2,unknown,2,2014-11-15 17:57:12.573,8,2014-11-15 17:52:35.410,3
2014-11-15 17:57:40.784,11110,370.3333,40.10482,-88.22192,235.5699,0.43,218.6719,6,10,1416095860,0.2839813,0.9663544,-0.2316284,44.69437,19.79163,-29.49637,237.7502,240.8325,15,-0.4749295,0.07715178,0.1974974,0.3425329,0.4072685,-1.15718,-0.2404186,0.2195528,0.1684347,-0.009911078,0.1448585,0.01943949,172.17.160.76,10.64.29.0,2,unknown,2,2014-11-15 17:57:12.573,8,2014-11-15 17:52:35.410,3
2014-11-15 17:57:40.818,11111,370.3667,40.10482,-88.22192,235.5699,0.43,218.6719,6,10,1416095860,0.1161194,1.07872,-0.5836945,44.69437,20.20462,-29.02573,237.9124,240.9947,15,-0.4534373,0.4152561,0.2267959,0.3876803,0.4587025,-1.172319,-0.3448344,0.3535959,0.1833307,0.145621,0.2189417,0.1370444,172.17.160.76,10.64.29.0,2,unknown,2,2014-11-15 17:57:12.573,8,2014-11-15 17:52:35.410,3
2014-11-15 17:57:40.851,11112,370.4,40.10482,-88.22192,235.5699,0.43,218.6719,6,10,1416095860,0.2155151,0.7329712,-0.521347,45.55252,20.72086,-27.64761,238.3854,241.4677,15,-0.6402453,0.2062405,0.2561162,0.4168571,0.4987578,-1.179224,-0.5114243,0.3682274,0.2816877,-0.1941035,0.02016294,-0.3689829,172.17.160.76,10.64.29.0,2,unknown,2,2014-11-15 17:57:12.573,8,2014-11-15 17:52:35.410,3
2014-11-15 17:57:40.884,11113,370.4333,40.10482,-88.22192,235.5699,0.43,218.6719,6,10,1416095860,0.3721466,1.34491,-0.3012238,45.48387,21.06503,-26.37033,238.8845,241.9668,15,-0.4136323,0.2732787,0.4243963,0.4785297,0.5661729,-1.192043,-0.4713211,0.3000244,0.3990028,0.1853698,0.1216093,0.08087905,172.17.160.76,10.64.29.0,2,unknown,2,2014-11-15 17:57:12.573,8,2014-11-15 17:52:35.410,3
2014-11-15 17:57:40.917,11114,370.4667,40.10482,-88.22192,235.5699,0.43,218.6719,6,10,1416095860,0.2080536,0.8858337,-0.3669281,45.68983,21.89102,-25.02585,238.8368,241.9191,15,-0.4096381,0.4336415,0.5547266,0.5257128,0.622566,-1.192144,-0.3181008,0.5157273,0.5502952,0.03074557,0.2975972,-0.108958,172.17.160.76,10.64.29.0,2,unknown,2,2014-11-15 17:57:12.573,8,2014-11-15 17:52:35.410,3
2014-11-15 17:57:40.951,11115,370.5,40.10482,-88.22192,235.5699,0.43,218.6719,6,10,1416095860,0.3361359,1.063446,-0.2326813,46.03309,21.47804,-24.42087,238.681,241.7633,15,-0.4475722,0.4282917,0.406233,0.5605929,0.6654679,-1.19117,-0.3605422,0.5663458,0.4965851,-0.02074848,-0.04296947,-0.07542472,172.17.160.76,10.64.29.0,2,unknown,2,2014-11-15 17:57:12.573,8,2014-11-15 17:52:35.410,3
2014-11-15 17:57:40.984,11116,370.5334,40.10482,-88.22192,235.5699,0.43,218.6719,6,10,1416095860,0.2417603,1.113831,-0.2529297,46.92556,21.54687,-22.20236,239.1232,242.2055,15,-0.42682,0.3014166,0.209113,0.6195865,0.7426382,-1.191711,-0.3504927,0.588623,0.3512417,0.0858812,0.1344427,0.03994544,172.17.160.76,10.64.29.0,2,unknown,2,2014-11-15 17:57:12.573,8,2014-11-15 17:52:35.410,3
2014-11-15 17:57:41.018,11117,370.5667,40.10482,-88.22192,235.5699,0.43,218.6719,6,10,1416095860,0.243866,0.9525452,-0.3310699,47.20017,21.54687,-21.19394,239.5072,242.5895,15,-0.5533484,0.30597,0.1002781,0.6539331,0.7867985,-1.19427,-0.4119613,0.3524685,0.1708377,-0.01860126,0.183883,0.006703625,172.17.160.76,10.64.29.0,2,unknown,2,2014-11-15 17:57:12.573,8,2014-11-15 17:52:35.410,3
2014-11-15 17:57:41.051,11118,370.6,40.10482,-88.22192,235.5699,0.43,218.6719,6,10,1416095860,0.4536591,1.09996,-0.1970673,47.06287,22.02869,-19.17703,240.3162,243.3985,15,-0.4188926,0.2810876,0.04975398,0.7035196,0.8488294,-1.206866,-0.550157,0.411172,0.05596266,-0.02327729,0.01804026,-0.0958359,172.17.160.76,10.64.29.0,2,unknown,2,2014-11-15 17:57:12.573,8,2014-11-15 17:52:35.410,3
2014-11-15 17:57:41.084,11119,370.6334,40.10482,-88.22192,235.5699,0.43,218.6719,6,10,1416095860,0.2998352,0.9845428,-0.2467041,46.65095,22.64818,-17.49643,241.0566,244.1389,15,-0.3605444,0.04223667,0.08330661,0.7324465,0.8863318,-1.212951,-0.3135953,0.2431063,0.04676133,0.06660281,0.1460642,-0.03637505,172.17.160.76,10.64.29.0,2,unknown,2,2014-11-15 17:57:12.573,8,2014-11-15 17:52:35.410,3
2014-11-15 17:57:41.118,11120,370.6667,40.10482,-88.22192,235.6873,0.34,210.9375,6,10,1416095861,0.2615051,0.937973,-0.1562805,46.23904,23.19883,-15.7485,242.0604,245.1427,15,-0.3813391,0.06115843,-0.086353,0.7648376,0.923206,-1.217618,-0.2987181,0.1591129,0.04095578,-0.07561366,-0.02947976,-0.09512819,172.17.160.76,10.64.29.0,2,unknown,2,2014-11-15 17:57:12.573,8,2014-11-15 17:52:35.410,3
2014-11-15 17:57:41.151,11121,370.7,40.10482,-88.22192,235.6873,0.34,210.9375,6,10,1416095861,0.3524933,1.027481,-0.1974335,46.27337,23.43974,-15.04257,242.7076,245.7899,15,-0.2149637,-0.1147572,-0.1547757,0.7807744,0.9405296,-1.227772,-0.1799597,-0.08793369,-0.163533,0.1270871,0.1387026,0.08758213,172.17.160.76,10.64.29.0,2,unknown,2,2014-11-15 17:57:12.573,8,2014-11-15 17:52:35.410,3
2014-11-15 17:57:41.184,11122,370.7334,40.10482,-88.22192,235.6873,0.34,210.9375,6,10,1416095861,0.1499634,0.849762,-0.1853485,45.41522,24.30015,-14.74008,243.1099,246.1922,15,-0.2689055,-0.1083464,-0.2946556,0.7849506,0.9443693,-1.233742,-0.1681774,0.05230135,-0.1596502,-0.08734374,-0.03409539,-0.0366962,172.17.160.76,10.64.29.0,2,unknown,2,2014-11-15 17:57:12.573,8,2014-11-15 17:52:35.410,3
2014-11-15 17:57:41.218,11123,370.7667,40.10482,-88.22192,235.6873,0.34,210.9375,6,10,1416095861,0.4667664,1.083679,0.03179932,44.52274,24.98846,-14.13504,243.7729,246.8552,15,-0.2132729,-0.07586494,-0.3520129,0.7848219,0.9433398,-1.240887,-0.2231623,-0.08080798,-0.3427202,-0.1122879,-0.09630965,0.004842967,172.17.160.76,10.64.29.0,2,unknown,2,2014-11-15 17:57:12.573,8,2014-11-15 17:52:35.410,3
2014-11-15 17:57:41.251,11124,370.8,40.10482,-88.22192,235.6873,0.34,210.9375,6,10,1416095861,0.1801147,0.7389679,-0.1921387,44.17948,25.12612,-14.06784,244.699,247.7813,15,-0.1063461,-0.3780006,-0.5355178,0.7548733,0.9159927,-1.252901,0.1182683,-0.1753906,-0.4644444,0.06804497,0.2045998,0.1035477,172.17.160.76,10.64.29.0,2,unknown,2,2014-11-15 17:57:12.573,8,2014-11-15 17:52:35.410,3
2014-11-15 17:57:41.284,11125,370.8333,40.10482,-88.22192,235.6873,0.34,210.9375,6,10,1416095861,0.3352509,1.007233,-0.1436768,43.11538,25.36703,-12.82419,246.5939,249.6762,15,0.01204761,-0.1099326,-0.4878442,0.7244778,0.8777884,-1.264681,-0.01065068,-0.2372611,-0.5046238,-0.05172736,-0.2145436,0.0003843076,172.17.160.76,10.64.29.0,2,unknown,2,2014-11-15 17:57:12.573,8,2014-11-15 17:52:35.410,3
2014-11-15 17:57:41.318,11126,370.8667,40.10482,-88.22192,235.6873,0.34,210.9375,6,10,1416095861,0.219986,0.8870544,-0.09429932,43.0124,25.47029,-12.52164,247.5779,250.6602,15,0.2548414,-0.4335557,-0.8354392,0.6488057,0.8101369,-1.273036,0.5167503,0.08739159,-0.6779107,0.1348171,0.1417212,0.177277,172.17.160.76,10.64.29.0,2,unknown,2,2014-11-15 17:57:12.573,8,2014-11-15 17:52:35.410,3
2014-11-15 17:57:41.351,11127,370.9,40.10482,-88.22192,235.6873,0.34,210.9375,6,10,1416095861,0.2023468,1.016495,-0.3728485,41.36475,26.64045,-11.8494,249.781,252.8633,15,0.7004263,0.2082485,-0.6638909,0.5622532,0.7189564,-1.281294,0.3419315,-0.3511761,-0.7942058,0.03197224,-0.07133172,0.1205188,172.17.160.76,10.64.29.0,2,unknown,2,2014-11-15 17:57:12.573,8,2014-11-15 17:52:35.410,3
2014-11-15 17:57:41.384,11128,370.9333,40.10482,-88.22192,235.6873,0.34,210.9375,6,10,1416095861,0.2826996,0.9151764,-0.1270905,40.30065,26.95019,-11.47964,252.3974,255.4797,15,0.938347,0.5525883,-0.639616,0.4989883,0.657845,-1.281203,0.7673272,0.2766324,-0.6481312,0.02775038,0.05813456,-0.1468798,172.17.160.76,10.64.29.0,2,unknown,2,2014-11-15 17:57:12.573,8,2014-11-15 17:52:35.410,3
2014-11-15 17:57:41.418,11129,370.9667,40.10482,-88.22192,235.6873,0.34,210.9375,6,10,1416095861,0.1274414,0.8138428,-0.2609558,39.40818,26.67486,-10.47134,257.7538,260.8362,15,0.7749645,-0.3409059,-0.775333,0.275837,0.4679072,-1.250644,0.8844663,-0.2245354,-0.7340048,-0.03375617,-0.03073036,-0.02345212,172.17.160.76,10.64.29.0,2,unknown,2,2014-11-15 17:57:12.573,8,2014-11-15 17:52:35.410,3
2014-11-15 17:57:41.451,11130,371,40.10482,-88.22192,235.6873,0.34,210.9375,6,10,1416095861,0.1281128,1.051727,-0.1916656,38.653,26.60603,-10.33688,260.5783,263.6606,15,0.7157698,-0.03979242,-0.8658746,0.1774483,0.3690298,-1.237831,0.7889253,-0.07752132,-0.8305293,-0.01235231,-0.08747215,0.1354555,172.17.160.76,10.64.29.0,2,unknown,2,2014-11-15 17:57:12.573,8,2014-11-15 17:52:35.410,3
2014-11-15 17:57:41.484,11131,371.0334,40.10482,-88.22192,235.6873,0.34,210.9375,6,10,1416095861,0.08227539,0.8042145,-0.3234711,37.41727,26.7437,-9.530182,263.1137,266.196,15,0.4994173,-0.1239334,-0.9058439,0.1131419,0.3086255,-1.229363,0.6889643,0.01133158,-0.8901916,0.01561789,0.1259464,0.05539177,172.17.160.76,10.64.29.0,2,unknown,2,2014-11-15 17:57:12.573,8,2014-11-15 17:52:35.410,3
2014-11-15 17:57:41.518,11132,371.0667,40.10482,-88.22192,235.6873,0.34,210.9375,6,10,1416095861,0.08227539,0.9298248,-0.3190613,35.35771,27.50086,-9.126862,266.7234,269.8058,15,0.3428812,-0.4058764,-0.6817083,0.007992016,0.1997373,-1.219658,0.3927239,-0.4130746,-0.6853898,0.1260126,-0.1756458,0.02973958,172.17.160.76,10.64.29.0,2,unknown,2,2014-11-15 17:57:12.573,8,2014-11-15 17:52:35.410,3
2014-11-15 17:57:41.551,11133,371.1,40.10482,-88.22192,235.6873,0.34,210.9375,6,10,1416095861,0.2308655,0.7596741,-0.2167358,34.80849,27.91385,-8.92514,268.0634,271.1458,15,0.2176548,-0.1256469,-0.4451761,-0.04960475,0.1394034,-1.211434,0.3338983,-0.008018779,-0.5185069,-0.0001297513,-0.07551044,0.004820598,172.17.160.76,10.64.29.0,2,unknown,2,2014-11-15 17:57:12.573,8,2014-11-15 17:52:35.410,3
2014-11-15 17:57:41.584,11134,371.1334,40.10482,-88.22192,235.6873,0.34,210.9375,6,10,1416095861,-0.05168152,0.7381744,-0.3395081,33.74439,28.56776,-8.28653,270.9373,274.0196,15,-0.03262133,-0.2757165,-0.2115032,-0.09363707,0.08713577,-1.204297,0.1313356,-0.5492381,-0.2987489,0.1589085,-0.1890961,0.03750095,172.17.160.76,10.64.29.0,2,unknown,2,2014-11-15 17:57:12.573,8,2014-11-15 17:52:35.410,3
2014-11-15 17:57:41.618,11135,371.1667,40.10482,-88.22192,235.6873,0.34,210.9375,6,10,1416095861,0.188385,0.6395416,-0.2602997,33.57276,28.80867,-7.984039,272.2028,275.2851,15,-0.1322528,0.07207579,-0.3143854,-0.1066022,0.06745549,-1.203381,0.03427642,-0.2073359,-0.1957442,-0.07589348,-0.1950844,0.01887964,172.17.160.76,10.64.29.0,2,unknown,2,2014-11-15 17:57:12.573,8,2014-11-15 17:52:35.410,3
2014-11-15 17:57:41.651,11136,371.2,40.10482,-88.22192,235.6873,0.34,210.9375,6,10,1416095861,-0.01737976,0.9199524,-0.2902222,33.0922,28.80866,-7.580719,273.0938,276.1761,15,-0.2540901,-0.04526895,-0.2423663,-0.1359081,0.04347644,-1.206282,-0.1080916,0.1396463,-0.2676878,0.1728907,-0.2947553,0.09585917,172.17.160.76,10.64.29.0,2,unknown,2,2014-11-15 17:57:12.573,8,2014-11-15 17:52:35.410,3
2014-11-15 17:57:41.684,11137,371.2334,40.10482,-88.22192,235.6873,0.34,210.9375,6,10,1416095861,-0.1103516,0.7604218,-0.3484344,32.74894,29.15282,-7.244537,273.5353,276.6176,15,-0.2839921,-0.05949875,-0.5820035,-0.1686774,0.01368043,-1.213779,-0.1801899,-0.0337698,-0.4424142,-0.4045154,-0.08350404,-0.05466527,172.17.160.76,10.64.29.0,2,unknown,2,2014-11-15 17:57:12.573,8,2014-11-15 17:52:35.410,3
2014-11-15 17:57:41.718,11138,371.2667,40.10482,-88.22192,235.6873,0.34,210.9375,6,10,1416095861,0.1067963,0.9765015,-0.3248138,32.33702,29.49699,-7.110077,273.9444,277.0267,15,-0.4474017,-0.2055769,-0.5184719,-0.2215713,-0.03610815,-1.221677,-0.3470693,-0.07217991,-0.6150132,0.1677291,-0.131401,0.109456,172.17.160.76,10.64.29.0,2,unknown,2,2014-11-15 17:57:12.573,8,2014-11-15 17:52:35.410,3
2014-11-15 17:57:41.751,11139,371.3,40.10482,-88.22192,235.6873,0.34,210.9375,6,10,1416095861,-0.4423523,0.9890594,-0.565155,31.68483,30.08207,-6.202545,278.2518,281.3341,15,-0.2231729,-0.07350271,-0.6035346,-0.2769209,-0.09333123,-1.232653,-0.1395797,-0.1170814,-0.4971408,-0.3489512,0.1467766,-0.2291104,172.17.160.76,10.64.29.0,2,unknown,2,2014-11-15 17:57:12.573,8,2014-11-15 17:52:35.410,3
2014-11-15 17:57:41.783,11140,371.3333,40.10482,-88.22192,235.6873,0.34,210.9375,6,10,1416095861,0.0115509,1.137146,-0.3276978,30.75804,30.52949,-5.967255,279.1863,282.2686,15,-0.3732889,-0.1239611,-0.6817879,-0.3396754,-0.1485114,-1.237684,-0.3613775,0.2126597,-0.7472067,0.1327028,-0.1221838,0.1212227,172.17.160.76,10.64.29.0,2,unknown,2,2014-11-15 17:57:12.573,8,2014-11-15 17:52:35.410,3
2014-11-15 17:57:41.818,11141,371.3667,40.10482,-88.22192,235.6873,0.34,210.9375,6,10,1416095861,-0.2415009,0.9291992,-0.4951019,30.3118,30.49509,-5.933624,279.3758,282.4581,15,0.05559295,-0.0845314,-0.7808425,-0.4017588,-0.2129515,-1.238594,0.07940114,-0.2620087,-0.6802376,0.001832344,0.2695326,-0.125928,172.17.160.76,10.64.29.0,2,unknown,2,2014-11-15 17:57:12.573,8,2014-11-15 17:52:35.410,3
2014-11-15 17:57:41.851,11142,371.4,40.10482,-88.22192,235.6873,0.34,210.9375,6,10,1416095861,0.01365662,0.973877,-0.1089783,29.41932,30.35742,-6.538666,280.288,283.3703,15,-0.0169425,0.1945375,-0.6952443,-0.4639373,-0.2673645,-1.229337,0.1258551,0.4092604,-0.7129672,-0.04689308,-0.1807464,-0.08708391,172.17.160.76,10.64.29.0,2,unknown,2,2014-11-15 17:57:12.573,8,2014-11-15 17:52:35.410,3
2014-11-15 17:57:41.884,11143,371.4333,40.10482,-88.22192,235.6873,0.34,210.9375,6,10,1416095861,-0.08476257,1.117355,-0.1881714,28.56117,30.59833,-6.370697,280.8363,283.9186,15,0.06332651,-0.6265582,-0.6552865,-0.5011443,-0.2946234,-1.224066,0.04995177,0.2629146,-0.6794862,0.1725306,-0.1154156,0.1952534,172.17.160.76,10.64.29.0,2,unknown,2,2014-11-15 17:57:12.573,8,2014-11-15 17:52:35.410,3
2014-11-15 17:57:41.918,11144,371.4667,40.10482,-88.22192,235.6873,0.34,210.9375,6,10,1416095861,0.1164856,0.7127075,-0.1833496,27.0165,30.90807,-5.933624,283.6361,286.7184,15,0.1068977,0.2467344,-0.3876034,-0.5798038,-0.3817361,-1.205199,0.2384566,0.2643536,-0.6175572,-0.02671379,0.0186044,0.0644094,172.17.160.76,10.64.29.0,2,unknown,2,2014-11-15 17:57:12.573,8,2014-11-15 17:52:35.410,3
2014-11-15 17:57:41.951,11145,371.5,40.10482,-88.22192,235.6873,0.34,210.9375,6,10,1416095861,-0.01818848,0.9408417,-0.1653748,26.19268,31.11456,-5.395782,285.1636,288.2459,15,0.1045213,-0.2652551,-0.08352233,-0.6064287,-0.3973698,-1.195341,0.1295853,0.1013257,-0.2613502,0.2583949,-0.2176333,0.1547741,172.17.160.76,10.64.29.0,2,unknown,2,2014-11-15 17:57:12.573,8,2014-11-15 17:52:35.410,3
2014-11-15 17:57:41.984,11146,371.5334,40.10482,-88.22192,235.6873,0.34,210.9375,6,10,1416095861,-0.01350403,0.7532959,-0.2346802,25.43751,31.3899,-4.790802,286.4969,289.5792,15,-0.1040955,0.1460201,-0.08800576,-0.6112393,-0.40571,-1.190031,0.1280163,-0.009200779,-0.1228723,-0.07000259,-0.03043115,0.1285116,172.17.160.76,10.64.29.0,2,unknown,2,2014-11-15 17:57:12.573,8,2014-11-15 17:52:35.410,3
2014-11-15 17:57:42.018,11147,371.5667,40.10482,-88.22192,235.6873,0.34,210.9375,6,10,1416095861,-0.08132935,0.919632,-0.2756042,25.26588,31.35548,-4.488312,286.8608,289.9431,15,-0.1699419,-0.5396369,0.008409464,-0.6241256,-0.4154836,-1.191775,-0.1391514,-0.3768562,0.0003853035,0.1645464,-0.09202158,0.1883848,172.17.160.76,10.64.29.0,2,unknown,2,2014-11-15 17:57:12.573,8,2014-11-15 17:52:35.410,3
2014-11-15 17:57:42.051,11148,371.6,40.10482,-88.22192,235.6873,0.34,210.9375,6,10,1416095861,-0.1040649,0.7772522,-0.2913208,24.92262,31.28665,-4.219452,287.5742,290.6566,15,-0.2154623,0.1505096,0.07802609,-0.6253544,-0.4241539,-1.194039,-0.1209878,-0.194921,0.03311975,0.0544731,-0.01654765,-0.01321998,172.17.160.76,10.64.29.0,2,unknown,2,2014-11-15 17:57:12.573,8,2014-11-15 17:52:35.410,3
2014-11-15 17:57:42.084,11149,371.6334,40.10482,-88.22192,235.6873,0.34,210.9375,6,10,1416095861,-0.1126251,0.8899689,-0.2922058,24.78531,31.56199,-4.219452,287.1246,290.2069,15,-0.1684764,-0.1786725,-0.03215447,-0.6201221,-0.4037968,-1.200161,-0.06311094,0.2939901,0.05458417,-0.06068689,-0.05259599,0.09372827,172.17.160.76,10.64.29.0,2,unknown,2,2014-11-15 17:57:12.573,8,2014-11-15 17:52:35.410,3
2014-11-15 17:57:42.118,11150,371.6667,40.10482,-88.22193,235.479,0.36,259.8047,6,10,1416095862,-0.1003876,0.8703156,-0.3290253,24.78531,31.63082,-3.950531,287.2346,290.3169,15,-0.2761184,-0.3000589,-0.07272694,-0.6239184,-0.4101971,-1.202217,-0.1687896,-0.3071101,-0.05221076,0.03105502,-0.04287143,0.03819544,172.17.160.76,10.64.29.0,2,unknown,2,2014-11-15 17:57:12.573,8,2014-11-15 17:52:35.410,3
2014-11-15 17:57:42.151,11151,371.7,40.10482,-88.22193,235.479,0.36,259.8047,6,10,1416095862,-0.1923065,0.9967804,-0.3275604,25.0256,31.80289,-4.118561,286.312,289.3943,15,-0.2771605,0.06823285,0.01307346,-0.6338633,-0.4156497,-1.209728,-0.2143688,0.4970937,0.06577327,0.07900192,-0.07599248,-0.03950763,172.17.160.76,10.64.29.0,2,unknown,2,2014-11-15 17:57:12.573,8,2014-11-15 17:52:35.410,3
2014-11-15 17:57:42.184,11152,371.7334,40.10482,-88.22193,235.479,0.36,259.8047,6,10,1416095862,-0.1406097,0.9851532,-0.3195801,25.09425,31.66524,-4.185822,285.9247,289.007,15,-0.2905312,-0.01069632,-0.1688055,-0.6458513,-0.422734,-1.217506,-0.2185713,-0.2674423,-0.1494721,-0.0123845,0.08577793,0.09145446,172.17.160.76,10.64.29.0,2,unknown,2,2014-11-15 17:57:12.573,8,2014-11-15 17:52:35.410,3
2014-11-15 17:57:42.218,11153,371.7667,40.10482,-88.22193,235.479,0.36,259.8047,6,10,1416095862,-0.1344147,0.7666931,-0.8091583,25.12857,31.63083,-4.757233,285.1011,288.1834,15,-0.4245537,0.4373486,0.1992055,-0.6652628,-0.4405421,-1.221226,-0.09129743,0.4233072,-0.1240162,0.08634199,0.05077535,-0.0579593,172.17.160.76,10.64.29.0,2,unknown,2,2014-11-15 17:57:12.573,8,2014-11-15 17:52:35.410,3
2014-11-15 17:57:42.251,11154,371.8,40.10482,-88.22193,235.479,0.36,259.8047,6,10,1416095862,-0.05761719,0.8850861,-0.06613159,25.23155,31.11456,-4.723602,284.6005,287.6828,15,-0.008041947,-0.102349,-0.1873297,-0.6625055,-0.4239347,-1.226255,-0.09215836,0.1774063,0.09866474,-0.173896,0.6303486,0.0965921,172.17.160.76,10.64.29.0,2,unknown,2,2014-11-15 17:57:12.573,8,2014-11-15 17:52:35.410,3
2014-11-15 17:57:42.284,11155,371.8333,40.10482,-88.22193,235.479,0.36,259.8047,6,10,1416095862,-0.1155396,1.052994,-0.6859283,25.33453,30.80481,-4.488312,284.5045,287.5868,15,-0.1821418,0.07848389,-0.03074912,-0.6673066,-0.431541,-1.224272,0.05880745,-0.03402282,-0.1715689,0.08444072,-0.0554726,0.2423631,172.17.160.76,10.64.29.0,2,unknown,2,2014-11-15 17:57:12.573,8,2014-11-15 17:52:35.410,3
2014-11-15 17:57:42.318,11156,371.8667,40.10482,-88.22193,235.479,0.36,259.8047,6,10,1416095862,-0.2398529,1.19783,0.07829285,25.30021,30.70158,-4.253021,284.8578,287.9401,15,0.2103548,-0.1180617,-0.143648,-0.6767087,-0.4362881,-1.226109,-0.0437405,0.1783962,-0.04905754,0.09480137,0.2628442,-0.09847404,172.17.160.76,10.64.29.0,2,unknown,1,2014-11-15 17:57:42.262,8,2014-11-15 17:52:35.410,3
2014-11-15 17:57:42.351,11157,371.9,40.10482,-88.22193,235.479,0.36,259.8047,6,10,1416095862,-0.2206573,0.801239,-0.2832031,25.0256,31.1834,-4.387482,285.1195,288.2018,15,-0.02747796,-0.02613573,-0.08601478,-0.6853502,-0.4457732,-1.221621,-0.002171882,-0.06114195,-0.1077948,0.04972993,0.3014794,0.0973556,172.17.160.76,10.64.29.0,2,unknown,1,2014-11-15 17:57:42.262,8,2014-11-15 17:52:35.410,3
2014-11-15 17:57:42.384,11158,371.9333,40.10482,-88.22193,235.479,0.36,259.8047,6,10,1416095862,-0.07060242,0.9690704,-0.3597717,24.81964,31.32108,-3.9841,285.9156,288.998,15,-0.09565489,0.1100392,-0.06805868,-0.6897994,-0.447627,-1.220721,-0.01499221,0.1284305,-0.05049003,-0.0932683,0.02589354,0.001743947,172.17.160.76,10.64.29.0,2,unknown,1,2014-11-15 17:57:42.262,8,2014-11-15 17:52:35.410,3
2014-11-15 17:57:42.418,11159,371.9667,40.10482,-88.22193,235.479,0.36,259.8047,6,10,1416095862,-0.1857758,0.9781952,-0.06234741,24.88829,31.45873,-3.916901,286.1033,289.1856,15,-0.1015868,-0.3110998,0.02421772,-0.6947982,-0.4490126,-1.222008,-0.1112842,-0.0633494,0.01573391,0.07580931,-0.08764519,-0.02913808,172.17.160.76,10.64.29.0,2,unknown,1,2014-11-15 17:57:42.262,8,2014-11-15 17:52:35.410,3
2014-11-15 17:57:42.451,11160,372,40.10482,-88.22193,235.479,0.36,259.8047,6,10,1416095862,-0.01506042,0.8966522,-0.2891998,24.30475,31.42432,-3.143799,287.3306,290.4129,15,-0.3017103,0.01083267,0.008617191,-0.6964779,-0.4569131,-1.224402,-0.1624125,-0.1038869,-0.008702281,-0.09806421,-0.08295227,0.09122597,172.17.160.76,10.64.29.0,2,unknown,1,2014-11-15 17:57:42.262,8,2014-11-15 17:52:35.410,3
2014-11-15 17:57:42.484,11161,372.0334,40.10482,-88.22193,235.479,0.36,259.8047,6,10,1416095862,-0.1483765,0.7691193,-0.197052,24.27042,31.38991,-3.042938,286.52,289.6023,15,-0.2672125,-0.1386522,0.1966446,-0.7033284,-0.4620732,-1.230427,-0.1976361,0.05592797,0.04640668,0.133765,-0.04597916,0.009626302,172.17.160.76,10.64.29.0,2,unknown,1,2014-11-15 17:57:42.262,8,2014-11-15 17:52:35.410,3
2014-11-15 17:57:42.518,11162,372.0667,40.10482,-88.22193,235.479,0.36,259.8047,6,10,1416095862,-0.116394,0.8898621,-0.2688293,23.72121,31.25225,-2.572388,286.7541,289.8364,15,-0.3279006,-0.06109984,0.1909114,-0.696835,-0.4573255,-1.238428,-0.2591068,-0.08493662,0.2443921,-0.004306464,-0.1761531,0.09570052,172.17.160.76,10.64.29.0,2,unknown,1,2014-11-15 17:57:42.262,8,2014-11-15 17:52:35.410,3
2014-11-15 17:57:42.551,11163,372.1,40.10482,-88.22193,235.479,0.36,259.8047,6,10,1416095862,-0.08879089,0.8200531,-0.3139954,24.2361,31.08018,-2.135406,286.5122,289.5945,15,-0.3208401,0.08149273,0.3604114,-0.6866472,-0.4455862,-1.251282,-0.2151048,0.2422023,0.2300277,0.07720866,-0.1047685,0.02696551,172.17.160.76,10.64.29.0,2,unknown,1,2014-11-15 17:57:42.262,8,2014-11-15 17:52:35.410,3
2014-11-15 17:57:42.584,11164,372.1334,40.10482,-88.22193,235.479,0.36,259.8047,6,10,1416095862,-0.1754303,0.9185333,-0.2239838,24.33908,31.38994,-1.967346,286.451,289.5333,15,-0.3760205,0.05852669,0.2702712,-0.6587861,-0.4125357,-1.266513,-0.2805626,0.1123572,0.3389215,-0.1017393,-0.05620424,0.0395959,172.17.160.76,10.64.29.0,2,unknown,1,2014-11-15 17:57:42.262,8,2014-11-15 17:52:35.410,3
2014-11-15 17:57:42.618,11165,372.1667,40.10482,-88.22193,235.479,0.36,259.8047,6,10,1416095862,-0.05839539,0.9737701,-0.330719,24.78532,31.35553,-2.202637,285.3115,288.3938,15,-0.4899295,0.2796207,0.2739849,-0.6441401,-0.3907795,-1.284613,-0.432765,0.2896076,0.3032729,0.06881645,0.008536749,-0.06354284,172.17.160.76,10.64.29.0,2,unknown,1,2014-11-15 17:57:42.262,8,2014-11-15 17:52:35.410,3
2014-11-15 17:57:42.651,11166,372.2,40.10482,-88.22193,235.479,0.36,259.8047,6,10,1416095862,-0.1294556,0.9212036,-0.3319855,25.57482,31.38995,-2.169006,284.4181,287.5004,15,-0.4205875,0.2028152,0.2382919,-0.6316808,-0.3688853,-1.298737,-0.3409992,0.2999956,0.2775083,-0.1118632,-0.01064391,-0.05609322,172.17.160.76,10.64.29.0,2,unknown,1,2014-11-15 17:57:42.262,8,2014-11-15 17:52:35.410,3
2014-11-15 17:57:42.684,11167,372.2334,40.10482,-88.22193,235.479,0.36,259.8047,6,10,1416095862,-0.00112915,1.01358,-0.2023315,25.64347,30.83929,-2.236206,283.1654,286.2477,15,-0.4610763,0.1548745,0.2190844,-0.6228299,-0.3530898,-1.312276,-0.4304619,0.1986854,0.2231741,-0.003897046,-0.0378754,-0.03676334,172.17.160.76,10.64.29.0,2,unknown,1,2014-11-15 17:57:42.262,8,2014-11-15 17:52:35.410,3
2014-11-15 17:57:42.718,11168,372.2667,40.10482,-88.22193,235.479,0.36,259.8047,6,10,1416095862,-0.1833496,0.9206238,-0.2826385,26.15835,30.73605,-2.404297,282.2768,285.3591,15,-0.4460212,0.1023762,0.162493,-0.6147672,-0.3386612,-1.325378,-0.3653644,0.1825138,0.1963081,-0.07600514,0.08176773,-0.04290259,172.17.160.76,10.64.29.0,2,unknown,1,2014-11-15 17:57:42.262,8,2014-11-15 17:52:35.410,3
2014-11-15 17:57:42.751,11169,372.3,40.10482,-88.22193,235.479,0.36,259.8047,6,10,1416095862,0.004425049,1.037979,-0.2370605,26.0897,30.73605,-3.54715,278.9622,282.0446,15,-0.4118896,0.1299948,0.1635721,-0.6101987,-0.3274191,-1.342221,-0.3770165,0.2014941,0.1762834,0.08262195,-0.03410974,-0.07675254,172.17.160.76,10.64.29.0,2,unknown,1,2014-11-15 17:57:42.262,8,2014-11-15 17:52:35.410,3
2014-11-15 17:57:42.784,11170,372.3333,40.10482,-88.22193,235.479,0.36,259.8047,6,10,1416095862,-0.09605408,0.9806824,-0.1504517,26.74189,30.97696,-3.84964,277.4504,280.5327,15,-0.3680963,0.2127999,0.1564138,-0.6051189,-0.31841,-1.350129,-0.3450469,0.198314,0.1793313,0.07294717,0.0622275,-0.02918201,172.17.160.76,10.64.29.0,2,unknown,1,2014-11-15 17:57:42.262,8,2014-11-15 17:52:35.410,3
2014-11-15 17:57:42.818,11171,372.3667,40.10482,-88.22193,235.479,0.36,259.8047,6,10,1416095862,0.07164001,0.9792786,-0.2110596,26.77622,31.08021,-4.152191,276.5139,279.5962,15,-0.3305931,-0.244409,-0.02340173,-0.5930719,-0.2966889,-1.363326,-0.2584886,0.1849758,0.106756,-0.07114217,-0.005212313,0.07196993,172.17.160.76,10.64.29.0,2,unknown,1,2014-11-15 17:57:42.262,8,2014-11-15 17:52:35.410,3
2014-11-15 17:57:42.850,11172,372.4,40.10482,-88.22193,235.479,0.36,259.8047,6,10,1416095862,0.1525726,1.096664,-0.112381,26.8792,30.97696,-4.18576,276.471,279.5533,15,-0.3998209,-0.130628,-0.01617444,-0.598183,-0.3032028,-1.368281,-0.2637513,-0.1760906,-0.007642791,0.1316944,-0.0002851039,-0.01909996,172.17.160.76,10.64.29.0,2,unknown,1,2014-11-15 17:57:42.262,8,2014-11-15 17:52:35.410,3
2014-11-15 17:57:42.884,11173,372.4333,40.10482,-88.22193,235.479,0.36,259.8047,6,10,1416095862,-0.3048248,1.191422,-0.1023712,27.56572,30.21981,-4.656342,274.3111,277.3934,15,0.1065448,-0.2564677,-0.04527028,-0.5838435,-0.2820055,-1.383936,-0.02108102,0.3293858,0.2499273,0.05607712,0.0686619,0.4854738,172.17.160.76,10.64.29.0,2,unknown,1,2014-11-15 17:57:42.262,8,2014-11-15 17:52:35.410,3
2014-11-15 17:57:42.918,11174,372.4667,40.10482,-88.22193,235.479,0.36,259.8047,6,10,1416095862,0.2836151,1.19986,0.4746704,27.60004,29.84123,-4.824371,271.3806,274.463,15,0.321418,0.1677786,-0.1351283,-0.5742006,-0.2770347,-1.379234,-0.005467973,-0.006627912,-0.06397638,0.1752117,-0.05302763,-0.1437561,172.17.160.76,10.64.29.0,2,unknown,1,2014-11-15 17:57:42.262,8,2014-11-15 17:52:35.410,3
2014-11-15 17:57:42.951,11175,372.5,40.10482,-88.22193,235.479,0.36,259.8047,6,10,1416095862,0.08035278,0.599411,-0.7097778,27.22246,29.5315,-5.328522,270.3451,273.4274,15,0.0638136,0.264364,0.1168547,-0.5619233,-0.2584925,-1.363277,0.4824778,0.197243,0.08918484,-0.1105717,0.01091109,0.04151857,172.17.160.76,10.64.29.0,2,unknown,1,2014-11-15 17:57:42.262,8,2014-11-15 17:52:35.410,3
2014-11-15 17:57:42.984,11176,372.5334,40.10482,-88.22193,235.479,0.36,259.8047,6,10,1416095862,-0.2031555,1.969635,0.5265198,27.08515,29.87567,-5.059662,271.5734,274.6557,15,0.08659002,0.09623812,-0.05501452,-0.5392197,-0.2274165,-1.359782,0.1946132,0.1697749,0.09224101,0.1404851,0.02192172,0.2663914,172.17.160.76,10.64.29.0,2,unknown,1,2014-11-15 17:57:42.262,8,2014-11-15 17:52:35.410,3
2014-11-15 17:57:43.018,11177,372.5667,40.10482,-88.22193,235.479,0.36,259.8047,6,10,1416095862,-0.08032227,0.2683716,-0.6634979,27.11948,29.91008,-4.958832,271.8477,274.93,15,0.04230351,0.2728281,-0.1717433,-0.5423093,-0.2325159,-1.348805,0.4895838,-0.02916688,-0.2039418,0.116331,0.4453611,0.5736527,172.17.160.76,10.64.29.0,2,unknown,1,2014-11-15 17:57:42.262,8,2014-11-15 17:52:35.410,3
2014-11-15 17:57:43.051,11178,372.6,40.10482,-88.22193,235.479,0.36,259.8047,6,10,1416095862,0.08078003,0.5569458,-0.03636169,27.32544,29.70357,-4.958832,273.3889,276.4712,15,0.3436902,-0.1087406,-0.1674508,-0.5423948,-0.2286905,-1.34076,0.450716,-0.1812281,-0.08040369,-0.03475003,0.669805,0.3311918,172.17.160.76,10.64.29.0,2,unknown,1,2014-11-15 17:57:42.262,8,2014-11-15 17:52:35.410,3
2014-11-15 17:57:43.084,11179,372.6334,40.10482,-88.22193,235.479,0.36,259.8047,6,10,1416095862,-0.00378418,1.15181,0.1065369,27.08515,29.39381,-5.126923,273.2292,276.3115,15,-0.08991444,0.1531951,0.1603657,-0.5450596,-0.2328667,-1.335592,-0.1273535,-0.1174712,0.02506035,0.1345585,-0.415521,0.1903896,172.17.160.76,10.64.29.0,2,unknown,1,2014-11-15 17:57:42.262,8,2014-11-15 17:52:35.410,3
2014-11-15 17:57:43.118,11180,372.6667,40.10482,-88.22193,235.6978,0.28,296.3672,6,10,1416095863,0.01411438,0.901474,-0.267868,27.08515,29.325,-5.395782,273.0983,276.1806,15,-0.2518051,0.1156377,0.1013312,-0.5220702,-0.2037975,-1.335284,-0.009867332,0.2130106,0.03591394,0.1224365,0.01225485,0.06881419,172.17.160.76,10.64.29.0,2,unknown,1,2014-11-15 17:57:42.262,8,2014-11-15 17:52:35.410,3
2014-11-15 17:57:43.151,11181,372.7,40.10482,-88.22193,235.6978,0.28,296.3672,6,10,1416095863,-0.008499146,0.9444733,-0.1451416,27.46274,29.42825,-5.294952,273.4294,276.5117,15,-0.2296199,0.144876,0.1757058,-0.5154954,-0.1946825,-1.338066,-0.1849673,0.1839519,0.1170891,0.05873195,-0.07156625,-0.04158958,172.17.160.76,10.64.29.0,2,unknown,1,2014-11-15 17:57:42.262,8,2014-11-15 17:52:35.410,3
2014-11-15 17:57:43.184,11182,372.7334,40.10482,-88.22193,235.6978,0.28,296.3672,6,10,1416095863,-0.01583862,0.936615,-0.1972046,27.97763,29.5315,-4.925201,273.1624,276.2447,15,-0.386292,0.1374042,0.1613924,-0.4805038,-0.1489922,-1.34716,-0.2118225,0.2121515,0.1916418,-0.02227017,0.05296344,-0.05687965,172.17.160.76,10.64.29.0,2,unknown,1,2014-11-15 17:57:42.262,8,2014-11-15 17:52:35.410,3
2014-11-15 17:57:43.218,11183,372.7667,40.10482,-88.22193,235.6978,0.28,296.3672,6,10,1416095863,-0.1663971,1.098434,-0.2443848,28.35522,29.49709,-4.95871,272.7015,275.7838,15,-0.2894712,-0.1038308,0.1629439,-0.4585283,-0.1240845,-1.356124,-0.1971535,-0.01624879,0.2052486,-0.04402321,0.09213706,0.1450135,172.17.160.76,10.64.29.0,2,unknown,1,2014-11-15 17:57:42.262,8,2014-11-15 17:52:35.410,3
2014-11-15 17:57:43.250,11184,372.8,40.10482,-88.22193,235.6978,0.28,296.3672,6,10,1416095863,-0.3517609,0.7958527,-1.884369,28.56117,29.42826,-4.82431,272.2896,275.3719,15,-0.298274,0.2039928,-0.02116148,-0.4463882,-0.1128483,-1.360536,-0.1819085,-0.02450966,0.09687681,-0.142894,0.1204577,-0.03699826,172.17.160.76,10.64.29.0,2,unknown,1,2014-11-15 17:57:42.262,8,2014-11-15 17:52:35.410,3
2014-11-15 17:57:43.284,11185,372.8333,40.10482,-88.22193,235.6978,0.28,296.3672,6,10,1416095863,0.2892914,-0.3036652,-1.039276,28.80145,29.11852,-4.723419,271.7514,274.8337,15,-0.3582412,-0.4926203,-0.1095238,-0.4486885,-0.1133775,-1.373361,0.2202221,-0.389367,-0.07214165,0.0258236,1.308551,1.430171,172.17.160.76,10.64.29.0,2,unknown,1,2014-11-15 17:57:42.262,8,2014-11-15 17:52:35.410,3
2014-11-15 17:57:43.318,11186,372.8667,40.10482,-88.22193,235.6978,0.28,296.3672,6,10,1416095863,0.1753235,1.56929,0.6531219,28.93876,29.04969,-4.454559,271.9457,275.028,15,-0.302782,0.05023734,0.02050501,-0.4434198,-0.1143175,-1.381966,-0.3439788,-0.6317109,0.3055209,-0.263958,-0.0504923,-0.02323191,172.17.160.76,10.64.29.0,2,unknown,1,2014-11-15 17:57:42.262,8,2014-11-15 17:52:35.410,3
2014-11-15 17:57:43.351,11187,372.9,40.10482,-88.22193,235.6978,0.28,296.3672,6,10,1416095863,-0.170639,0.7423859,-1.340561,28.42387,28.94645,-4.286591,271.4902,274.5725,15,-0.3006355,0.01826236,0.007590808,-0.4534408,-0.1175716,-1.377758,0.1030397,0.2524298,0.06330038,-0.04726001,-0.5363881,0.3774678,172.17.160.76,10.64.29.0,2,unknown,1,2014-11-15 17:57:42.262,8,2014-11-15 17:52:35.410,3
2014-11-15 17:57:43.384,11188,372.9333,40.10482,-88.22193,235.6978,0.28,296.3672,6,10,1416095863,0.2681885,0.7093353,-0.1674652,28.38955,28.91204,-4.320221,271.675,274.7573,15,0.004162521,-0.06309455,-0.3357762,-0.4451167,-0.1073977,-1.385121,-0.2338398,0.08652847,0.02335184,-0.1508504,-0.2404259,-1.157014,172.17.160.76,10.64.29.0,2,unknown,1,2014-11-15 17:57:42.262,8,2014-11-15 17:52:35.410,3
2014-11-15 17:57:43.418,11189,372.9667,40.10482,-88.22193,235.6978,0.28,296.3672,6,10,1416095863,-0.1386871,1.045044,-0.6593475,28.21791,29.01529,-4.286591,271.7303,274.8126,15,-0.5515111,-0.2820171,0.04834676,-0.4765004,-0.1420217,-1.381747,-0.01563535,-0.1927259,0.06352334,-0.08691028,-0.2273005,-0.1235065,172.17.160.76,10.64.29.0,2,unknown,1,2014-11-15 17:57:42.262,8,2014-11-15 17:52:35.410,3
2014-11-15 17:57:43.451,11190,373,40.10482,-88.22193,235.6978,0.28,296.3672,6,10,1416095863,0.0554657,0.7836609,0.2702637,28.42387,28.87762,-4.622772,271.3896,274.4719,15,-0.2155381,-0.5423543,-0.07316822,-0.4728857,-0.1426237,-1.387953,-0.4847163,-0.2137518,0.06410758,-0.1128422,0.06171325,-0.4793676,172.17.160.76,10.64.29.0,2,unknown,1,2014-11-15 17:57:42.262,8,2014-11-15 17:52:35.410,3
2014-11-15 17:57:43.485,11191,373.0334,40.10482,-88.22193,235.6978,0.28,296.3672,6,10,1416095863,0.09385681,0.7762299,-0.2737732,28.28656,29.01529,-5.093353,270.4396,273.5219,15,-0.6810662,-0.5727783,0.5143528,-0.4727849,-0.1560761,-1.39608,-0.3639781,-0.4375266,0.2694659,0.06332114,-0.3728069,-0.08418943,172.17.160.76,10.64.29.0,2,unknown,1,2014-11-15 17:57:42.262,8,2014-11-15 17:52:35.410,3
2014-11-15 17:57:43.518,11192,373.0667,40.10482,-88.22193,235.6978,0.28,296.3672,6,10,1416095863,0.2266998,1.031479,0.1808624,28.45819,29.18737,-4.858063,269.8481,272.9305,15,-0.5203471,-0.9991216,0.4902762,-0.3057478,-0.02688872,-1.426898,-0.5893598,-1.015982,0.6228601,0.01639817,0.1456047,-0.03015686,172.17.160.76,10.64.29.0,2,unknown,1,2014-11-15 17:57:42.262,8,2014-11-15 17:52:35.410,3
2014-11-15 17:57:43.551,11193,373.1,40.10482,-88.22193,235.6978,0.28,296.3672,6,10,1416095863,-0.06752014,1.117783,-0.2276001,28.97308,29.56595,-4.891632,267.5693,270.6516,15,-0.73733,-1.21902,0.624739,-0.2292034,0.03039419,-1.436051,-0.4387574,-0.8975412,0.5571079,0.175193,-0.1792138,0.171538,172.17.160.76,10.64.29.0,2,unknown,1,2014-11-15 17:57:42.262,8,2014-11-15 17:52:35.410,3
2014-11-15 17:57:43.584,11194,373.1334,40.10482,-88.22193,235.6978,0.28,296.3672,6,10,1416095863,0.07635498,0.9610596,0.03175354,28.93876,29.18737,-5.395782,264.478,267.5603,15,-0.5143406,-1.338822,0.5330471,-0.01172486,0.1993789,-1.457872,-0.5563277,-1.355568,0.5413368,-0.005335279,0.1719575,0.08611421,172.17.160.76,10.64.29.0,2,unknown,1,2014-11-15 17:57:42.262,8,2014-11-15 17:52:35.410,3
2014-11-15 17:57:43.618,11195,373.1667,40.10482,-88.22193,235.6978,0.28,296.3672,6,10,1416095863,0.001113892,1.067841,-0.09135437,29.07606,29.04971,-5.866364,262.4294,265.5117,15,-0.572888,-0.7731764,0.2952887,0.1504785,0.3269837,-1.467311,-0.4872244,-0.8765932,0.3727016,0.03090808,-0.113272,0.04094227,172.17.160.76,10.64.29.0,2,unknown,1,2014-11-15 17:57:42.262,8,2014-11-15 17:52:35.410,3
2014-11-15 17:57:43.651,11196,373.2,40.10482,-88.22193,235.6978,0.28,296.3672,6,10,1416095863,0.07429504,1.112518,0.05528259,28.62983,29.22179,-5.967255,260.1097,263.192,15,-0.5021715,-0.7634564,0.1793735,0.2924056,0.4481932,-1.478525,-0.5441898,-0.620438,0.2383941,-0.03881387,0.07209451,-0.008314879,172.17.160.76,10.64.29.0,2,unknown,1,2014-11-15 17:57:42.262,8,2014-11-15 17:52:35.410,3
2014-11-15 17:57:43.684,11197,373.2334,40.10482,-88.22193,235.6978,0.28,296.3672,6,10,1416095863,-0.03131104,0.8453522,-0.09432983,28.83578,29.29063,-6.370575,257.9175,260.9998,15,-0.6937601,-0.3904434,0.1746248,0.4721897,0.6021649,-1.490077,-0.3999155,-0.4957786,0.1514686,0.07061498,0.01674484,0.1429574,172.17.160.76,10.64.29.0,2,unknown,1,2014-11-15 17:57:42.262,8,2014-11-15 17:52:35.410,3
2014-11-15 17:57:43.718,11198,373.2667,40.10482,-88.22193,235.6978,0.28,296.3672,6,10,1416095863,0.05818176,0.6262512,-0.0819397,28.62983,29.49712,-6.505035,256.9286,260.0109,15,-1.061811,-0.5045891,0.2327219,0.5877758,0.7098348,-1.496385,-0.6269688,-0.3221818,0.1903848,-0.05591129,-0.1254371,-0.003412551,172.17.160.76,10.64.29.0,2,unknown,1,2014-11-15 17:57:42.262,8,2014-11-15 17:52:35.410,3
2014-11-15 17:57:43.751,11199,373.3,40.10482,-88.22193,235.6978,0.28,296.3672,6,10,1416095863,-0.02262878,0.529007,0.08204651,28.69847,29.42828,-7.983978,252.8161,255.8984,15,-1.454515,-0.8009633,0.6423638,1.190271,1.291881,-1.509242,-1.256887,-0.6697702,0.4159472,0.001652435,-0.4455243,-0.005326439,172.17.160.76,10.64.29.0,2,unknown,1,2014-11-15 17:57:42.262,8,2014-11-15 17:52:35.410,3
2014-11-15 17:57:43.785,11200,373.3333,40.10482,-88.22193,235.6978,0.28,296.3672,6,10,1416095863,0.04025269,0.6470947,0.1025085,28.5955,29.73803,-8.689911,247.6614,250.7437,15,-1.86575,-0.562416,0.9699733,1.917673,1.988935,-1.476447,-1.592785,-0.6230727,0.8112606,-0.07824949,-0.4034809,0.06780934,172.17.160.76,10.64.29.0,2,unknown,1,2014-11-15 17:57:42.262,8,2014-11-15 17:52:35.410,3
