time,timestamp,recordtime,lat,long,alt,speed,course,verticalAccuracy,horizontalAccuracy,locTimeStamp,accelerationX,accelerationY,accelerationZ,HeadingX,HeadingY,HeadingZ,TrueHeading,MagneticHeading,HeadingAccuracy,RotationX,RotationY,RotationZ,motionYaw,motionRoll,motionPitch,motionRotationRateX,motionRotationRateY,motionRotationRateZ,motionUserAccelerationX,motionUserAccelerationY,motionUserAccelerationZ,en0,pdp_ip0,DeviceOrientation,Activity,Activity Confidence,Activity Start,Steps,Last Step Date,State
2014-11-13 21:24:52.965,29395,979.8334,40.10425,-88.22172,231,-1,-1,10.09077,165,1415935357,-0.9035339,-0.1127319,0.04989624,-37.00638,-25.17483,10.57462,172.9119,175.9951,10,-0.146043,-0.04093651,-0.36588,-1.243069,-1.695667,0.2341635,-0.09298445,0.1204643,-0.3425283,0.05832051,0.1599621,-0.05786891,172.17.160.76,0.0.0.0,3,walking,0,2014-11-13 21:24:48.117,322,2014-11-13 21:24:38.284,0
2014-11-13 21:24:52.998,29396,979.8667,40.10425,-88.22172,231,-1,-1,10.09077,165,1415935357,-0.9341583,-0.1539764,0.08750916,-36.97195,-25.07152,10.87628,172.2103,175.2935,10,-0.1242596,-0.07350484,-0.1740048,-1.244817,-1.69069,0.2336501,-0.06442919,-0.03545739,-0.3052138,0.06231024,0.118798,-0.06646051,172.17.160.76,0.0.0.0,3,walking,0,2014-11-13 21:24:48.117,322,2014-11-13 21:24:38.284,0
2014-11-13 21:24:53.032,29397,979.9,40.10425,-88.22172,231,-1,-1,10.09077,165,1415935357,-0.9349365,-0.1557312,0.1357269,-36.24878,-25.58807,10.90982,171.8886,174.9718,10,-0.02654772,0.01465804,-0.03060638,-1.246232,-1.688528,0.2348638,0.001032051,0.08001286,-0.064938,0.02578077,0.0604541,-0.03173076,172.17.160.76,0.0.0.0,3,walking,0,2014-11-13 21:24:48.117,322,2014-11-13 21:24:38.284,0
2014-11-13 21:24:53.065,29398,979.9334,40.10425,-88.22172,231,-1,-1,10.09077,165,1415935357,-0.9581146,-0.1845551,0.1304016,-36.24878,-25.45033,11.31213,170.5006,173.5838,10,0.06569646,0.06484158,0.1487029,-1.245065,-1.684949,0.2332116,0.06552782,0.1792573,0.1370246,0.02160494,0.06043379,0.03622711,172.17.160.76,0.0.0.0,3,walking,0,2014-11-13 21:24:48.117,322,2014-11-13 21:24:38.284,0
2014-11-13 21:24:53.098,29399,979.9667,40.10425,-88.22172,231,-1,-1,10.09077,165,1415935357,-0.9736786,-0.2254944,0.1659393,-36.55871,-25.34702,11.21155,170.4101,173.4933,10,0.1474677,0.01981179,0.24157,-1.240189,-1.681379,0.2256408,0.1835192,0.05762165,0.2187377,0.01320767,0.01686755,0.04837001,172.17.160.76,0.0.0.0,3,walking,0,2014-11-13 21:24:48.117,322,2014-11-13 21:24:38.284,0
2014-11-13 21:24:53.132,29400,980.0001,40.10425,-88.22172,231,-1,-1,10.09077,165,1415935357,-0.9699097,-0.2299805,0.166153,-36.86864,-25.24371,11.17807,169.7898,172.873,10,0.1334563,0.0255232,0.2936652,-1.236664,-1.680587,0.2202493,0.2143389,0.08765437,0.2580552,-0.00371102,-0.007021524,0.05901635,172.17.160.76,0.0.0.0,3,walking,0,2014-11-13 21:24:48.117,322,2014-11-13 21:24:38.284,0
2014-11-13 21:24:53.165,29401,980.0334,40.10425,-88.22172,231,-1,-1,10.09077,165,1415935357,-0.9706726,-0.2232666,0.1430664,-37.04082,-24.93377,10.74231,170.2442,173.3274,10,0.1217896,0.02005627,0.2724504,-1.229868,-1.678283,0.2073649,0.18541,0.09548192,0.3080943,-0.01063699,-0.02643313,0.05251925,172.17.160.76,0.0.0.0,3,walking,0,2014-11-13 21:24:48.117,322,2014-11-13 21:24:38.284,0
2014-11-13 21:24:53.198,29402,980.0667,40.10425,-88.22172,231,-1,-1,10.09077,165,1415935357,-0.9802094,-0.2097473,0.1308594,-36.7309,-25.03708,10.64169,170.304,173.3872,10,0.1197181,-0.04822878,0.2349467,-1.220935,-1.679142,0.1939344,0.1972522,0.03023445,0.2525,-0.01436826,-0.0321935,0.03604464,172.17.160.76,0.0.0.0,3,walking,0,2014-11-13 21:24:48.117,322,2014-11-13 21:24:38.284,0
2014-11-13 21:24:53.232,29403,980.1,40.10425,-88.22172,231,-1,-1,10.09077,165,1415935357,-0.9885559,-0.2175446,0.1322784,-37.35076,-24.89933,10.70877,169.7402,172.8234,10,0.1059528,-0.05164935,0.2031358,-1.217758,-1.679317,0.1885523,0.1770008,0.02278213,0.2493521,0.01052545,-0.02318005,0.03155175,172.17.160.76,0.0.0.0,3,walking,0,2014-11-13 21:24:48.117,322,2014-11-13 21:24:38.284,0
2014-11-13 21:24:53.265,29404,980.1334,40.10425,-88.22172,231,-1,-1,10.09077,165,1415935357,-0.9941711,-0.2136383,0.1369476,-37.59181,-24.58939,10.67529,169.5129,172.5961,10,0.05069167,-0.04566948,0.1471157,-1.211593,-1.683907,0.1855605,0.1292334,0.003111144,0.1751004,-0.014399,-0.02958338,0.01760832,172.17.160.76,0.0.0.0,3,walking,0,2014-11-13 21:24:48.117,322,2014-11-13 21:24:38.284,0
2014-11-13 21:24:53.298,29405,980.1667,40.10425,-88.22172,231,-1,-1,10.09077,165,1415935357,-0.993042,-0.2012787,0.125,-37.90173,-24.21056,10.97702,168.5017,171.5849,10,0.005035505,-0.07272294,0.07920934,-1.20911,-1.686251,0.1850806,0.1144487,0.03043684,0.1349507,-0.01779347,-0.02961254,0.0237171,172.17.160.76,0.0.0.0,3,walking,0,2014-11-13 21:24:48.117,322,2014-11-13 21:24:38.284,0
2014-11-13 21:24:53.332,29406,980.2001,40.10425,-88.22172,231,-1,-1,10.09077,165,1415935357,-0.9818268,-0.1951904,0.1358337,-37.62625,-23.65955,11.04401,167.5626,170.6458,10,-0.02993686,-0.1541342,-0.0102529,-1.206137,-1.689664,0.1847299,0.04751902,-0.04038645,0.03928042,-0.01999845,-0.01172302,0.01148162,172.17.160.76,0.0.0.0,3,walking,0,2014-11-13 21:24:48.117,322,2014-11-13 21:24:38.284,0
2014-11-13 21:24:53.365,29407,980.2334,40.10425,-88.22172,231,-1,-1,10.09077,165,1415935357,-0.9953613,-0.1992645,0.1374512,-37.86732,-23.62511,11.14456,167.3273,170.4105,10,-0.04261377,-0.2001951,-0.06033764,-1.204597,-1.694323,0.1854093,0.03377054,-0.09708753,-0.01192392,-0.008133552,-0.01042959,0.02097317,172.17.160.76,0.0.0.0,3,walking,0,2014-11-13 21:24:48.117,322,2014-11-13 21:24:38.284,0
2014-11-13 21:24:53.398,29408,980.2667,40.10425,-88.22172,231,-1,-1,10.09077,165,1415935357,-0.9926758,-0.1901093,0.1411591,-37.90176,-23.59067,11.24515,167.2547,170.3379,10,-0.05213884,-0.2142039,-0.0869128,-1.203446,-1.699762,0.1873088,0.01360179,-0.1430778,-0.05243146,-0.01791409,-0.005144991,0.01170308,172.17.160.76,0.0.0.0,3,walking,0,2014-11-13 21:24:48.117,322,2014-11-13 21:24:38.284,0
2014-11-13 21:24:53.432,29409,980.3,40.10425,-88.22172,231,-1,-1,10.09077,165,1415935357,-0.9800873,-0.1789703,0.1331787,-37.86732,-23.694,11.41275,167.6187,170.7019,10,0.001149154,-0.2429367,-0.0893866,-1.201818,-1.707392,0.1899007,0.0328671,-0.1571225,-0.08123767,-0.0152071,-0.002461806,0.009556953,172.17.160.76,0.0.0.0,3,walking,0,2014-11-13 21:24:48.117,322,2014-11-13 21:24:38.284,0
2014-11-13 21:24:53.465,29410,980.3334,40.10425,-88.22172,231,-1,-1,10.09077,165,1415935357,-0.9674072,-0.1864777,0.140152,-37.14415,-24.21056,11.91556,167.6184,170.7016,10,0.007569503,-0.2579043,-0.1011658,-1.199657,-1.712801,0.1909764,0.07651457,-0.1793479,-0.06665432,-0.001207907,0.01389904,-0.004082484,172.17.160.76,0.0.0.0,3,walking,0,2014-11-13 21:24:48.117,322,2014-11-13 21:24:38.284,0
2014-11-13 21:24:53.498,29411,980.3667,40.10425,-88.22172,231,-1,-1,10.09077,165,1415935357,-0.9726868,-0.1832275,0.1635895,-37.17858,-24.52051,12.08319,167.8247,170.9079,10,-0.03826483,-0.2536389,-0.1020332,-1.195839,-1.72386,0.1934308,0.03497221,-0.2156094,-0.08685374,-0.005235705,0.01191376,0.005833586,172.17.160.76,0.0.0.0,3,walking,0,2014-11-13 21:24:48.117,322,2014-11-13 21:24:38.284,0
2014-11-13 21:24:53.532,29412,980.4,40.10425,-88.22172,231,-1,-1,10.09077,165,1415935357,-0.9636078,-0.1640778,0.1351318,-37.1786,-24.52051,12.61954,167.5924,170.6756,10,-0.04683409,-0.2056259,-0.07627267,-1.194908,-1.728295,0.1944478,0.02005571,-0.1538786,-0.07373404,-0.002943855,0.009432617,0.01219951,172.17.160.76,0.0.0.0,3,walking,0,2014-11-13 21:24:48.117,322,2014-11-13 21:24:38.284,0
2014-11-13 21:24:53.565,29413,980.4334,40.10425,-88.22172,231,-1,-1,10.09077,165,1415935357,-0.9478149,-0.1882477,0.1542053,-37.41965,-23.79731,12.98831,167.1667,170.2499,10,-0.09276909,-0.2287884,-0.05074707,-1.194076,-1.732861,0.1944908,0.001767728,-0.1438727,-0.01628755,0.03191867,-0.002900043,-0.01393524,172.17.160.76,0.0.0.0,3,walking,0,2014-11-13 21:24:48.117,322,2014-11-13 21:24:38.284,0
2014-11-13 21:24:53.598,29414,980.4667,40.10425,-88.22172,231,-1,-1,10.09077,165,1415935357,-0.9573517,-0.1822662,0.1698456,-36.86867,-23.5218,12.72012,167.4111,170.4943,10,-0.200507,-0.1668241,-0.01286547,-1.194675,-1.73597,0.1956363,-0.05788288,-0.171646,-0.03956432,0.01975867,0.006143083,-0.007081791,172.17.160.76,0.0.0.0,3,walking,0,2014-11-13 21:24:48.117,322,2014-11-13 21:24:38.284,0
2014-11-13 21:24:53.632,29415,980.5001,40.10425,-88.22172,231,-1,-1,10.09077,165,1415935357,-0.8808441,-0.1547241,0.1259155,-36.73092,-23.38406,12.38489,168.6036,171.6868,10,-0.2808117,0.06617316,0.1627452,-1.200296,-1.738132,0.1944644,-0.1966389,0.05560035,0.07467399,0.03098423,0.01501842,-0.00174948,172.17.160.76,0.0.0.0,3,walking,0,2014-11-13 21:24:48.117,322,2014-11-13 21:24:38.284,0
2014-11-13 21:24:53.665,29416,980.5334,40.10425,-88.22172,231,-1,-1,10.09077,165,1415935357,-0.7949829,-0.1480408,0.1210022,-37.14416,-23.59068,11.51324,171.3125,174.3957,10,-0.2814485,0.01134134,0.3598945,-1.207561,-1.732952,0.1902246,-0.210966,0.1270414,0.2481266,0.1193485,0.04756947,-0.04803002,172.17.160.76,0.0.0.0,3,walking,0,2014-11-13 21:24:48.117,322,2014-11-13 21:24:38.284,0
2014-11-13 21:24:53.698,29417,980.5667,40.10425,-88.22172,231,-1,-1,10.09077,165,1415935357,-0.7424011,-0.1483002,0.1304169,-37.35077,-23.65957,11.24503,171.4709,174.5541,10,-0.3491881,-0.0712843,0.5306117,-1.21595,-1.728916,0.180488,-0.2393576,0.03186016,0.4472902,0.176501,0.03146893,-0.03390164,172.17.160.76,0.0.0.0,3,walking,0,2014-11-13 21:24:48.117,322,2014-11-13 21:24:38.284,0
2014-11-13 21:24:53.732,29418,980.6,40.10425,-88.22172,231,-1,-1,10.09077,165,1415935357,-0.682373,-0.0620575,0.2336273,-38.24612,-23.24632,10.70868,171.912,174.9952,10,-0.6995869,-0.03681128,1.136088,-1.229011,-1.726963,0.1629766,-0.4217121,-0.02272972,0.8064664,0.2688233,0.01334554,-0.008223216,172.17.160.76,0.0.0.0,3,walking,0,2014-11-13 21:24:48.117,322,2014-11-13 21:24:38.284,0
2014-11-13 21:24:53.764,29419,980.6334,40.10425,-88.22172,231,-1,-1,10.09077,165,1415935357,-0.9723053,0.2185211,0.1290588,-39.03816,-21.90324,10.0047,171.5854,174.6686,10,-1.053285,0.6244308,1.58141,-1.262591,-1.717998,0.1201919,-0.8391224,0.3488766,1.447937,0.2168208,0.1159355,0.08090415,172.17.160.76,0.0.0.0,3,walking,0,2014-11-13 21:24:48.117,322,2014-11-13 21:24:38.284,0
2014-11-13 21:24:53.798,29420,980.6667,40.10425,-88.22172,231,-1,-1,10.09077,165,1415935357,-0.9892426,0.3975677,0.08950806,-39.86463,-21.21449,9.937653,169.574,172.6572,10,-1.344481,0.8453497,1.691935,-1.312,-1.686064,0.06150567,-1.20949,0.8451877,1.725776,0.003082326,0.3411452,-0.01831429,172.17.160.76,0.0.0.0,3,walking,0,2014-11-13 21:24:48.117,322,2014-11-13 21:24:38.284,0
2014-11-13 21:24:53.832,29421,980.7001,40.10425,-88.22172,231,-1,-1,10.09077,165,1415935357,-1.114777,0.5408325,0.09197998,-40.75998,-19.35482,8.395538,167.1126,170.1958,10,-1.567459,0.8485454,1.396633,-1.371146,-1.646737,0.002376705,-1.420831,0.9433481,1.484004,-0.0392314,0.5176812,-0.02307257,172.17.160.76,0.0.0.0,3,walking,0,2014-11-13 21:24:48.117,322,2014-11-13 21:24:38.284,0
2014-11-13 21:24:53.864,29422,980.7334,40.10425,-88.22172,231,-1,-1,10.09077,165,1415935357,-1.149292,0.621933,0.1026306,-41.9997,-18.04617,7.389832,163.6261,166.7093,10,-1.952856,0.7974058,1.213109,-1.421199,-1.621057,-0.03512077,-1.733649,0.852568,1.261787,-0.1603412,0.528424,0.05297169,172.17.160.76,0.0.0.0,3,walking,0,2014-11-13 21:24:48.117,322,2014-11-13 21:24:38.284,0
2014-11-13 21:24:53.898,29423,980.7667,40.10425,-88.22172,231,-1,-1,10.09077,165,1415935357,-1.118179,0.5932159,-0.09899902,-42.72286,-17.04746,6.149475,163.5445,166.6277,10,-2.131541,0.3461374,0.9619538,-1.460322,-1.606174,-0.05769504,-1.976473,0.7786346,1.16465,-0.1515806,0.56427,0.06731959,172.17.160.76,0.0.0.0,3,walking,0,2014-11-13 21:24:48.117,322,2014-11-13 21:24:38.284,0
2014-11-13 21:24:53.932,29424,980.8,40.10425,-88.22172,231,-1,-1,10.09077,165,1415935357,-1.346252,0.4353943,-0.1309052,-43.58378,-15.49775,4.707916,164.6221,167.7053,10,-2.323986,-0.3938799,0.6042425,-1.523048,-1.597328,-0.08574641,-2.122019,0.1014227,0.825139,-0.1222039,0.5075746,-0.1254302,172.17.160.76,0.0.0.0,3,walking,0,2014-11-13 21:24:48.117,322,2014-11-13 21:24:38.284,0
2014-11-13 21:24:53.965,29425,980.8334,40.10425,-88.22172,231,-1,-1,10.09077,165,1415935357,-1.286484,0.1572113,-0.2091827,-44.47913,-13.9136,3.366974,167.8205,170.9037,10,-2.702657,-0.5012048,0.2972655,-1.61543,-1.617916,-0.1063278,-2.411174,-0.3827315,0.4330468,-0.4108802,0.2571232,-0.1950604,172.17.160.76,0.0.0.0,3,walking,0,2014-11-13 21:24:48.117,322,2014-11-13 21:24:38.284,0
2014-11-13 21:24:53.998,29426,980.8667,40.10425,-88.22172,231,-1,-1,10.09077,165,1415935357,-1.347015,0.09753418,-0.2783356,-44.44469,-13.4659,3.065277,170.2334,173.3166,10,-2.946368,-0.9561792,-0.3092625,-1.722247,-1.649092,-0.110882,-2.787812,-0.6718587,0.1123669,-0.2847748,0.02975642,-0.3293218,172.17.160.76,0.0.0.0,3,walking,0,2014-11-13 21:24:48.117,322,2014-11-13 21:24:38.284,0
2014-11-13 21:24:54.032,29427,980.9,40.10425,-88.22172,231,-1,-1,10.09077,165,1415935357,-1.318634,-0.02520752,-0.2418671,-45.09898,-13.36259,2.696472,176.5715,179.6547,10,-2.987059,-0.9998929,-0.6139857,-1.779054,-1.671678,-0.1031319,-2.879503,-0.8884394,-0.292855,-0.357386,-0.005415026,-0.3785108,172.17.160.76,0.0.0.0,3,walking,0,2014-11-13 21:24:48.117,322,2014-11-13 21:24:38.284,0
2014-11-13 21:24:54.065,29428,980.9334,40.10425,-88.22172,231,-1,-1,10.09077,165,1415935357,-1.156784,-0.2258148,0.01217651,-44.82349,-14.39574,3.031708,184.2311,187.3143,10,-2.855649,-1.181119,-1.10796,-1.891389,-1.71907,-0.0640875,-2.871575,-0.993409,-0.827363,-0.2699608,-0.1282984,-0.3366824,172.17.160.76,0.0.0.0,3,walking,0,2014-11-13 21:24:48.117,322,2014-11-13 21:24:38.284,0
2014-11-13 21:24:54.098,29429,980.9667,40.10425,-88.22172,231,-1,-1,10.09077,165,1415935357,-1.139771,-0.3321381,0.1098633,-44.58244,-15.32555,2.931152,189.7273,192.8105,10,-2.767293,-1.285713,-1.446393,-1.944085,-1.743123,-0.03568802,-2.788785,-1.11338,-1.091552,-0.1883209,-0.204992,-0.2346898,172.17.160.76,0.0.0.0,3,walking,0,2014-11-13 21:24:48.117,322,2014-11-13 21:24:38.284,0
2014-11-13 21:24:54.132,29430,981.0001,40.10425,-88.22172,231,-1,-1,10.09077,165,1415935357,-1.012665,-0.4972687,0.263504,-43.7904,-18.25278,2.964691,200.2674,203.3506,10,-2.940567,-1.428989,-1.99953,-2.086211,-1.815416,0.09053855,-2.862306,-1.335946,-1.867331,-0.08336601,-0.3896876,0.001586973,172.17.160.76,0.0.0.0,3,walking,0,2014-11-13 21:24:48.117,322,2014-11-13 21:24:38.284,0
2014-11-13 21:24:54.165,29431,981.0334,40.10425,-88.22172,231,-1,-1,10.09077,165,1415935357,-0.9432831,-0.5650482,0.3316345,-42.34406,-21.21445,2.629425,207.5928,210.6759,10,-2.896288,-1.4496,-2.194056,-2.131704,-1.837309,0.1438813,-2.836071,-1.361006,-2.089411,-0.05793784,-0.3538833,0.002856608,172.17.160.76,0.0.0.0,3,walking,0,2014-11-13 21:24:48.117,322,2014-11-13 21:24:38.284,0
2014-11-13 21:24:54.198,29432,981.0667,40.10425,-88.22172,231,-1,-1,10.09077,165,1415935357,-0.9124298,-0.6833649,0.3481598,-41.82751,-22.90192,2.662994,213.4773,216.5605,10,-3.161779,-1.30405,-2.495879,-2.2208,-1.872594,0.2618663,-3.058116,-1.211628,-2.303274,-0.001010628,-0.3087432,0.09668495,172.17.160.76,0.0.0.0,3,walking,0,2014-11-13 21:24:48.117,322,2014-11-13 21:24:38.284,0
2014-11-13 21:24:54.232,29433,981.1,40.10425,-88.22172,231,-1,-1,10.09077,165,1415935357,-1.057556,-0.6784363,0.1481171,-39.17591,-26.51794,2.227234,237.2047,240.2879,10,-3.12199,-1.493372,-3.365317,-2.290138,-1.88955,0.3650557,-3.241077,-1.281213,-2.807159,-0.06915736,-0.281167,0.08144318,172.17.160.76,0.0.0.0,3,walking,0,2014-11-13 21:24:48.117,322,2014-11-13 21:24:38.284,0
2014-11-13 21:24:54.265,29434,981.1334,40.10425,-88.22172,231,-1,-1,10.09077,165,1415935357,-0.7875061,-0.9283905,-0.008148193,-35.7667,-30.68494,0.9197998,255.136,258.2191,10,-2.568268,-0.8724814,-3.70698,-2.351614,-1.905178,0.4873029,-2.868982,-1.297473,-3.532569,-0.1687129,-0.2732564,-0.2123781,172.17.160.76,0.0.0.0,3,walking,0,2014-11-13 21:24:48.117,322,2014-11-13 21:24:38.284,0
2014-11-13 21:24:54.298,29435,981.1667,40.10425,-88.22172,231,-1,-1,10.09077,165,1415935357,-0.4467621,-0.9709015,-0.03935242,-33.2184,-32.75123,-0.0859375,264.3174,267.4006,10,-1.674919,-0.1952832,-3.887211,-2.402259,-1.908105,0.6591895,-2.059407,-0.3424228,-3.789573,0.06254853,-0.3182487,-0.2992392,172.17.160.76,0.0.0.0,3,walking,0,2014-11-13 21:24:48.117,322,2014-11-13 21:24:38.284,0
2014-11-13 21:24:54.332,29436,981.2001,40.10425,-88.22172,231,-1,-1,10.09077,165,1415935357,-0.1628876,-1.115982,0.03346252,-28.22511,-36.1606,-2.197968,280.5447,283.6279,10,-1.308056,-0.2383939,-3.94507,-2.413034,-1.904932,0.7436501,-1.608057,-0.1275479,-3.870805,0.248535,-0.2939226,-0.2807266,172.17.160.76,0.0.0.0,3,walking,0,2014-11-13 21:24:48.117,322,2014-11-13 21:24:38.284,0
2014-11-13 21:24:54.365,29437,981.2334,40.10425,-88.22172,231,-1,-1,10.09077,165,1415935357,-0.1676025,-1.17392,0.05422974,-21.64775,-39.01896,-3.572479,292.6393,295.7225,10,-0.8837935,-0.7825379,-4.074779,-2.404229,-1.921219,0.908246,-1.01645,-0.4513391,-3.936293,0.4590335,-0.3440355,-0.1502727,172.17.160.76,0.0.0.0,3,walking,0,2014-11-13 21:24:48.117,322,2014-11-13 21:24:38.284,0
2014-11-13 21:24:54.398,29438,981.2667,40.10425,-88.22172,231,-1,-1,10.09077,165,1415935357,-0.2284088,-1.207779,0.04638672,-18.30741,-40.36205,-4.209503,290.0027,293.0859,10,-0.704877,-0.2370975,-3.876203,-2.32622,-2.018633,1.108569,-0.684895,-0.4121411,-3.930959,0.1939131,-0.3071786,-0.1274115,172.17.160.76,0.0.0.0,3,walking,0,2014-11-13 21:24:48.117,322,2014-11-13 21:24:38.284,0
2014-11-13 21:24:54.432,29439,981.3,40.10425,-88.22172,231,-1,-1,10.09077,165,1415935357,-0.1070862,-1.284195,-0.141037,-11.76448,-42.29059,-4.678802,310.2599,313.3431,10,-0.5643436,0.1912682,-3.705698,-2.267602,-2.074361,1.18254,-0.5730416,0.0606922,-3.783465,0.1075673,-0.2990997,-0.1823918,172.17.160.76,0.0.0.0,3,walking,0,2014-11-13 21:24:48.117,322,2014-11-13 21:24:38.284,0
2014-11-13 21:24:54.465,29440,981.3334,40.10425,-88.22172,231,-1,-1,10.09077,165,1415935357,0.04109192,-1.332657,-0.3345947,-5.531479,-43.22042,-5.114532,312.1201,315.2033,10,-0.1511663,0.8160549,-3.397186,-2.124205,-2.196971,1.280881,-0.2610929,0.7067012,-3.485078,0.1245481,-0.3259269,-0.3085718,172.17.160.76,0.0.0.0,3,walking,0,2014-11-13 21:24:48.117,322,2014-11-13 21:24:38.284,0
2014-11-13 21:24:54.498,29441,981.3667,40.10425,-88.22172,231,-1,-1,10.09077,165,1415935357,0.07759094,-1.401016,-0.4635925,-2.432194,-43.22042,-4.980438,321.3343,324.4175,10,0.6900938,1.537628,-2.908255,-1.85039,-2.432642,1.352694,0.3277718,1.172241,-3.14728,0.1819619,-0.3563471,-0.4988352,172.17.160.76,0.0.0.0,3,walking,0,2014-11-13 21:24:48.117,322,2014-11-13 21:24:38.284,0
2014-11-13 21:24:54.532,29442,981.4,40.10425,-88.22172,231,-1,-1,10.09077,165,1415935357,0.4178925,-1.775726,-0.6140747,3.731926,-42.84161,-3.941254,320.9096,323.9928,10,1.444423,2.573686,-2.146664,-1.423116,-2.804506,1.378511,0.9815856,1.94349,-2.705152,0.1888155,-0.4805881,-0.6845134,172.17.160.76,0.0.0.0,3,walking,0,2014-11-13 21:24:48.117,322,2014-11-13 21:24:38.284,0
2014-11-13 21:24:54.565,29443,981.4334,40.10425,-88.22172,231,-1,-1,10.09077,165,1415935357,0.9850464,-2.275589,-0.5461884,8.139797,-42.15284,-0.3206787,320.9372,324.0204,10,2.496003,3.208698,-0.7216876,-0.9925743,-3.117787,1.32916,2.063061,3.226178,-1.483866,0.6036115,-0.9657437,-0.852124,172.17.160.76,0.0.0.0,3,walking,0,2014-11-13 21:24:48.117,322,2014-11-13 21:24:38.284,0
2014-11-13 21:24:54.598,29444,981.4667,40.10425,-88.22172,231,-1,-1,10.09077,165,1415935357,1.307816,-3.21405,-0.618454,9.172894,-41.94622,2.964661,318.4426,321.5258,10,2.410529,-0.4694716,2.292979,-0.9057341,-3.08029,1.224767,2.978351,2.25597,0.5382122,1.355206,-1.783272,-0.9521756,172.17.160.76,0.0.0.0,3,walking,0,2014-11-13 21:24:48.117,322,2014-11-13 21:24:38.284,0
2014-11-13 21:24:54.632,29445,981.5001,40.10425,-88.22172,231,-1,-1,10.09077,165,1415935357,-0.03038025,-2.297134,0.002639771,8.794094,-41.56739,9.971161,308.2601,311.3433,10,1.183259,-5.69225,3.164901,-1.040327,-2.95824,1.14211,1.763997,-1.958936,3.03946,1.279082,-2.369342,-0.9708732,172.17.160.76,0.0.0.0,3,walking,0,2014-11-13 21:24:48.117,322,2014-11-13 21:24:38.284,0
2014-11-13 21:24:54.665,29446,981.5334,40.10425,-88.22172,231,-1,-1,10.09077,165,1415935357,-3.641006,0.7163086,2.204697,5.453758,-41.32632,14.36276,307.574,310.6572,10,0.9295745,-3.746668,3.294982,-1.234241,-2.933069,1.083471,1.385902,-6.333,3.222708,-0.8607645,-0.5788442,0.02674301,172.17.160.76,0.0.0.0,3,walking,0,2014-11-13 21:24:48.117,322,2014-11-13 21:24:38.284,0
2014-11-13 21:24:54.698,29447,981.5667,40.10425,-88.22172,231,-1,-1,10.09077,165,1415935357,-4.072678,-0.02606201,1.862686,2.905457,-41.05081,14.96622,309.4047,312.4879,10,-0.3119004,7.429391,2.801205,-1.551983,-2.732295,1.012713,-0.5990434,4.297292,3.440035,-4.609276,1.664571,1.88471,172.17.160.76,0.0.0.0,3,walking,0,2014-11-13 21:24:48.117,322,2014-11-13 21:24:38.284,0
2014-11-13 21:24:54.732,29448,981.6,40.10425,-88.22172,231,-1,-1,10.09077,165,1415935357,2.422928,4.971741,0.04382324,-3.39642,-39.98323,13.2565,311.7209,314.8041,10,2.036355,10.53013,7.209645,-1.670635,-2.407837,0.9438671,2.207417,8.620964,4.33757,-1.37041,1.189212,-1.325371,172.17.160.76,0.0.0.0,3,walking,0,2014-11-13 21:24:48.117,322,2014-11-13 21:24:38.284,0
2014-11-13 21:24:54.765,29449,981.6334,40.10425,-88.22172,231,-1,-1,10.09077,165,1415935357,2.449188,0.8039551,0.4602051,-10.83469,-37.91694,12.586,270.0477,273.1309,10,0.02663161,-7.269024,0.2768819,-1.796481,-2.114974,0.7525098,1.011035,-1.156643,4.412632,4.106528,4.251543,-0.03805997,172.17.160.76,0.0.0.0,3,walking,0,2014-11-13 21:24:48.117,322,2014-11-13 21:24:38.284,0
2014-11-13 21:24:54.798,29450,981.6667,40.10425,-88.22172,231,-1,-1,10.09077,165,1415935357,-0.9345245,-0.2971954,0.7531586,-12.41877,-36.81493,13.05533,253.711,256.7942,10,1.561899,-7.964287,-4.191814,-1.755774,-2.380527,0.7633274,1.120735,-9.172398,-2.89161,0.7631621,2.246612,0.3392192,172.17.160.76,0.0.0.0,3,walking,0,2014-11-13 21:24:48.117,322,2014-11-13 21:24:38.284,0
2014-11-13 21:24:54.831,29451,981.7001,40.10425,-88.22172,231,-1,-1,10.09077,165,1415935357,0.1981201,0.06427002,0.5373077,-10.80025,-35.40296,16.10599,284.2861,287.3693,10,0.9722788,-0.9683036,-3.087038,-1.562983,-2.697561,0.7996353,1.336286,-3.205443,-4.623056,-0.120134,0.5025786,0.226286,172.17.160.76,0.0.0.0,3,walking,0,2014-11-13 21:24:48.117,322,2014-11-13 21:24:38.284,0
2014-11-13 21:24:54.864,29452,981.7334,40.10425,-88.22172,231,-1,-1,10.09077,165,1415935357,0.6215973,-0.2529144,0.4071045,-4.773872,-35.29965,18.68729,298.4269,301.5101,10,1.330867,1.941158,-1.770621,-1.412234,-2.840284,0.8043414,1.085666,0.1233939,-2.683306,0.4962103,0.653571,-0.1555947,172.17.160.76,0.0.0.0,3,walking,0,2014-11-13 21:24:48.117,322,2014-11-13 21:24:38.284,0
2014-11-13 21:24:54.898,29453,981.7667,40.10425,-88.22172,231,-1,-1,10.09077,165,1415935357,0.8989563,-0.3285675,0.4180298,-2.673244,-35.19633,19.59247,307.3903,310.4735,10,2.068145,1.098729,-1.135621,-1.317532,-2.858006,0.7807992,1.651665,2.299357,-1.398065,1.000896,0.4304403,-0.2775292,172.17.160.76,0.0.0.0,3,walking,0,2014-11-13 21:24:48.117,322,2014-11-13 21:24:38.284,0
2014-11-13 21:24:54.932,29454,981.8,40.10425,-88.22172,231,-1,-1,10.09077,165,1415935357,0.361969,-0.3996582,0.8366394,-0.6759338,-34.50757,20.93344,179.2158,182.299,10,2.322804,-1.322486,0.05758021,-1.230017,-2.879464,0.710203,2.3789,-0.3224862,-0.7140169,0.9379103,0.2908427,-0.1937393,172.17.160.76,0.0.0.0,3,walking,0,2014-11-13 21:24:48.117,322,2014-11-13 21:24:38.284,0
2014-11-13 21:24:54.965,29455,981.8334,40.10425,-88.22172,231,-1,-1,10.09077,165,1415935357,0.0973053,-0.293045,0.9801941,0.5293427,-32.82011,22.44202,157.8335,160.9167,10,2.171636,-1.234575,0.716728,-1.206613,-2.927476,0.6410326,2.354445,-1.397869,0.4045211,0.5322707,0.1983652,0.05346292,172.17.160.76,0.0.0.0,3,walking,0,2014-11-13 21:24:48.117,322,2014-11-13 21:24:38.284,0
2014-11-13 21:24:54.998,29456,981.8667,40.10425,-88.22172,231,-1,-1,10.09077,165,1415935357,-0.09962463,-0.2888489,0.9907532,0.7015228,-31.8214,22.94489,158.0692,161.1523,10,1.871099,0.08650853,1.023087,-1.215137,-2.957763,0.570771,2.150092,-0.791238,0.8033521,0.251125,0.247236,0.1528877,172.17.160.76,0.0.0.0,3,walking,0,2014-11-13 21:24:48.117,322,2014-11-13 21:24:38.284,0
2014-11-13 21:24:55.032,29457,981.9,40.10425,-88.22172,231,-1,-1,10.09077,165,1415935357,-0.09034729,-0.1796417,1.061417,0.6326523,-29.96173,24.62106,159.1451,162.2282,10,1.783663,0.7557029,1.553433,-1.260547,-2.920177,0.4650323,1.837846,0.8433335,1.537059,0.07406732,0.2324177,0.1285624,172.17.160.76,0.0.0.0,3,walking,0,2014-11-13 21:24:48.117,322,2014-11-13 21:24:38.284,0
2014-11-13 21:24:55.065,29458,981.9334,40.10425,-88.22172,231,-1,-1,10.09077,165,1415935357,-0.04864502,-0.1330414,1.077377,-0.1593857,-29.16966,25.45917,160.125,163.2082,10,1.604741,0.1772739,1.348314,-1.295209,-2.885244,0.4009731,1.766369,0.4357533,1.450262,0.171061,0.2002204,0.1956774,172.17.160.76,0.0.0.0,3,walking,0,2014-11-13 21:24:48.117,322,2014-11-13 21:24:38.284,0
2014-11-13 21:24:55.097,29459,981.9667,40.10425,-88.22172,231,-1,-1,10.09077,165,1415935357,-0.232193,0.003738403,1.036377,-2.018951,-27.86101,27.20239,162.4649,165.5481,10,1.396916,-0.1251121,1.253028,-1.322821,-2.870552,0.3441362,1.501162,0.0105014,1.262195,0.1240458,0.2835202,0.1342135,172.17.160.76,0.0.0.0,3,walking,0,2014-11-13 21:24:48.117,322,2014-11-13 21:24:38.284,0
2014-11-13 21:24:55.132,29460,982.0001,40.10425,-88.22172,231,-1,-1,10.09077,165,1415935357,-0.3056946,-0.03520203,1.052002,-3.947392,-26.27686,28.67746,165.1619,168.2451,10,1.418234,-0.262446,1.219319,-1.34909,-2.865384,0.2912989,1.481783,-0.1699958,1.279362,0.001837327,0.279903,0.1339468,172.17.160.76,0.0.0.0,3,walking,0,2014-11-13 21:24:48.117,322,2014-11-13 21:24:38.284,0
2014-11-13 21:24:55.165,29461,982.0334,40.10425,-88.22172,231,-1,-1,10.09077,165,1415935357,-0.3783722,0.09811401,0.9890289,-5.462597,-24.14169,29.3479,167.8558,170.9389,10,1.34733,0.2792287,1.184224,-1.372646,-2.863021,0.2392533,1.422587,0.01933642,1.160633,-0.06221084,0.2245414,0.08624704,172.17.160.76,0.0.0.0,3,walking,0,2014-11-13 21:24:48.117,322,2014-11-13 21:24:38.284,0
2014-11-13 21:24:55.198,29462,982.0667,40.10425,-88.22172,231,-1,-1,10.09077,165,1415935357,-0.3068695,0.08381653,0.9875031,-6.323505,-23.55625,29.64963,169.1916,172.2748,10,1.427364,0.0650067,1.103185,-1.395526,-2.849741,0.1884363,1.437611,0.3522983,1.21222,-0.0957397,0.2854371,0.04826917,172.17.160.76,0.0.0.0,3,walking,0,2014-11-13 21:24:48.117,322,2014-11-13 21:24:38.284,0
2014-11-13 21:24:55.232,29463,982.1,40.10425,-88.22172,231,-1,-1,10.09077,165,1415935357,-0.2804565,0.2833862,0.8397369,-7.425465,-21.42108,30.52124,170.7638,173.847,10,1.504086,-0.2697665,0.6754802,-1.418919,-2.842147,0.1186792,1.541755,-0.1244065,0.8462926,0.01168123,0.2352068,-0.0009182272,172.17.160.76,0.0.0.0,3,walking,0,2014-11-13 21:24:48.117,322,2014-11-13 21:24:38.284,0
2014-11-13 21:24:55.265,29464,982.1334,40.10425,-88.22172,231,-1,-1,10.09077,165,1415935357,-0.3374329,0.2585602,0.9015045,-8.010891,-20.42238,31.02414,171.582,174.6652,10,1.602207,-0.1618691,0.3349452,-1.42203,-2.848208,0.06804164,1.606884,-0.2189065,0.4358189,0.008068368,0.3513754,-0.1153185,172.17.160.76,0.0.0.0,3,walking,0,2014-11-13 21:24:48.117,322,2014-11-13 21:24:38.284,0
2014-11-13 21:24:55.298,29465,982.1667,40.10425,-88.22172,231,-1,-1,10.09077,165,1415935357,-0.3550873,0.272522,0.874054,-8.079762,-18.01172,32.63333,171.6382,174.7214,10,1.781828,0.1454688,0.2392962,-1.418015,-2.85186,0.01698903,1.741626,-0.05820161,0.3374427,-0.05177838,0.2755484,-0.05667757,172.17.160.76,0.0.0.0,6,walking,0,2014-11-13 21:24:48.117,322,2014-11-13 21:24:38.284,0
2014-11-13 21:24:55.331,29466,982.2001,40.10425,-88.22172,231,-1,-1,10.09077,165,1415935357,-0.4705048,0.4292908,0.8629761,-9.216167,-15.49774,33.53845,172.1605,175.2437,10,1.652255,1.474001,0.4166145,-1.404707,-2.825476,-0.07282357,1.707512,1.276283,0.323368,-0.1226857,0.302607,-0.1009307,172.17.160.76,0.0.0.0,6,walking,0,2014-11-13 21:24:48.117,322,2014-11-13 21:24:38.284,0
2014-11-13 21:24:55.365,29467,982.2334,40.10425,-88.22172,231,-1,-1,10.09077,165,1415935357,-0.4520874,0.3933105,0.9031525,-9.870461,-14.15465,33.84018,172.0204,175.1036,10,1.794707,1.600555,0.5812773,-1.402077,-2.793951,-0.1087199,1.78604,1.668918,0.5427453,-0.1318346,0.3207849,-0.07165166,172.17.160.76,0.0.0.0,6,walking,0,2014-11-13 21:24:48.117,322,2014-11-13 21:24:38.284,0
2014-11-13 21:24:55.398,29468,982.2667,40.10425,-88.22172,231,-1,-1,10.09077,165,1415935357,-0.6914368,0.4551544,0.7823181,-12.72868,-11.50291,34.5441,172.1685,175.2517,10,1.456501,1.897869,0.3919811,-1.395446,-2.726445,-0.1844484,1.671219,1.755485,0.4608354,-0.1542368,0.2555757,-0.05041421,172.17.160.76,0.0.0.0,6,walking,0,2014-11-13 21:24:48.117,322,2014-11-13 21:24:38.284,0
2014-11-13 21:24:55.432,29469,982.3,40.10425,-88.22172,231,-1,-1,10.09077,165,1415935357,-0.6586456,0.445694,0.8139191,-15.82796,-8.816734,34.14178,172.3732,175.4564,10,1.509947,2.133828,0.4046998,-1.386643,-2.662085,-0.229153,1.415033,2.260524,0.3466296,-0.256833,0.2403155,-0.07147253,172.17.160.76,0.0.0.0,6,walking,0,2014-11-13 21:24:48.117,322,2014-11-13 21:24:38.284,0
2014-11-13 21:24:55.465,29470,982.3334,40.10425,-88.22172,231,-1,-1,10.09077,165,1415935357,-0.7119446,0.4779663,0.726593,-17.65309,-7.473648,34.04117,174.0365,177.1196,10,1.248905,1.908439,0.6539387,-1.370489,-2.571916,-0.2923783,1.594217,1.971183,0.5970676,-0.1141756,0.1763539,-0.03639529,172.17.160.76,0.0.0.0,6,walking,0,2014-11-13 21:24:48.117,322,2014-11-13 21:24:38.284,0
2014-11-13 21:24:55.498,29471,982.3667,40.10425,-88.22172,231,-1,-1,10.09077,165,1415935357,-0.8663025,0.4052582,0.7546387,-21.13118,-5.028534,32.80084,171.5175,174.6007,10,1.023081,2.056077,0.6322091,-1.365136,-2.531364,-0.3235385,1.31576,1.976115,0.6703169,-0.1686223,0.1600428,-0.05040473,172.17.160.76,0.0.0.0,6,walking,0,2014-11-13 21:24:48.117,322,2014-11-13 21:24:38.284,0
2014-11-13 21:24:55.532,29472,982.4,40.10425,-88.22172,231,-1,-1,10.09077,165,1415935357,-0.8081665,0.4735413,0.7173767,-24.71257,-2.893364,31.9292,171.3305,174.4137,10,1.162822,1.911541,0.9196479,-1.358518,-2.445754,-0.3758503,1.151452,2.057442,0.7361107,-0.2486877,0.06024354,0.03999639,172.17.160.76,0.0.0.0,6,walking,0,2014-11-13 21:24:48.117,322,2014-11-13 21:24:38.284,0
2014-11-13 21:24:55.564,29473,982.4334,40.10425,-88.22172,231,-1,-1,10.09077,165,1415935357,-0.993454,0.3736877,0.7227173,-26.39996,-1.550285,31.22522,171.2113,174.2945,10,0.7951261,1.954069,0.900019,-1.354343,-2.384161,-0.4208882,1.179423,2.012614,0.99371,-0.1976877,0.06985282,0.04671022,172.17.160.76,0.0.0.0,6,walking,0,2014-11-13 21:24:48.117,322,2014-11-13 21:24:38.284,0
2014-11-13 21:24:55.598,29474,982.4667,40.10425,-88.22172,231,-1,-1,10.09077,165,1415935357,-1.058823,0.4339447,0.65065,-29.87804,0.7570724,29.78369,171.5732,174.6564,10,0.5254377,2.27352,0.9738304,-1.35823,-2.281614,-0.4804457,0.551962,2.267304,0.9114206,-0.3512966,-0.03279215,0.1145265,172.17.160.76,0.0.0.0,6,walking,0,2014-11-13 21:24:48.117,322,2014-11-13 21:24:38.284,0
2014-11-13 21:24:55.632,29475,982.5001,40.10425,-88.22172,231,-1,-1,10.09077,165,1415935357,-1.11734,0.3234406,0.7267761,-33.01176,3.339935,27.67166,115.0481,118.1313,10,0.5289195,2.20361,0.8619936,-1.363169,-2.213936,-0.5154088,0.6423661,2.314628,0.9930652,-0.3809937,-0.0747235,0.1404739,172.17.160.76,0.0.0.0,6,walking,0,2014-11-13 21:24:48.117,322,2014-11-13 21:24:38.284,0
2014-11-13 21:24:55.665,29476,982.5334,40.10425,-88.22172,231,-1,-1,10.09077,165,1415935357,-1.156784,0.2324677,0.7615509,-34.21704,3.856514,26.4313,114.6719,117.7551,10,0.2819105,2.029939,0.359923,-1.362869,-2.146775,-0.5428338,0.4261982,2.169871,0.5228758,-0.4209525,-0.2347194,0.2819304,172.17.160.76,0.0.0.0,6,walking,0,2014-11-13 21:24:48.117,322,2014-11-13 21:24:38.284,0
2014-11-13 21:24:55.698,29477,982.5667,40.10425,-88.22172,231,-1,-1,10.09077,165,1415935357,-1.216827,0.2536774,0.7362061,-36.28323,5.30291,23.54828,115.974,119.0572,10,0.07230829,1.662791,0.1305559,-1.360601,-2.104191,-0.5523926,0.2860887,1.994883,0.2762151,-0.4344471,-0.2880617,0.3323457,172.17.160.76,0.0.0.0,6,walking,0,2014-11-13 21:24:48.117,322,2014-11-13 21:24:38.284,0
2014-11-13 21:24:55.732,29478,982.6,40.10425,-88.22172,231,-1,-1,10.09077,165,1415935357,-1.301544,0.2826691,0.7148285,-38.1428,5.30291,20.86636,119.3709,122.4541,10,-0.07420925,1.497419,-0.1096613,-1.358269,-2.034013,-0.5593209,0.02220382,1.577509,0.005388752,-0.5215066,-0.264299,0.3383178,172.17.160.76,0.0.0.0,6,walking,0,2014-11-13 21:24:48.117,322,2014-11-13 21:24:38.284,0
2014-11-13 21:24:55.765,29479,982.6334,40.10425,-88.22172,231,-1,-1,10.09077,165,1415935357,-1.265671,0.2572784,0.6490173,-39.14146,5.475098,19.49188,120.6701,123.7533,10,-0.2974085,1.46976,-0.6927862,-1.35664,-1.985964,-0.553901,-0.08441596,1.581317,-0.3423581,-0.524413,-0.2370532,0.3710764,172.17.160.76,0.0.0.0,6,walking,0,2014-11-13 21:24:48.117,322,2014-11-13 21:24:38.284,0
2014-11-13 21:24:55.798,29480,982.6667,40.10425,-88.22172,231,-1,-1,10.09077,165,1415935357,-1.171997,0.2613068,0.565567,-41.20764,4.786346,17.61456,124.2209,127.3041,10,-0.4604462,1.230661,-1.129704,-1.355095,-1.938932,-0.5340314,-0.3036697,1.490554,-0.8335022,-0.4625798,-0.2517291,0.3392493,172.17.160.76,0.0.0.0,6,walking,0,2014-11-13 21:24:48.117,322,2014-11-13 21:24:38.284,0
2014-11-13 21:24:55.831,29481,982.7001,40.10425,-88.22172,231,-1,-1,10.09077,165,1415935357,-1.083008,0.2146912,0.4845581,-42.51624,3.271072,16.07248,128.6434,131.7266,10,-0.4441902,0.4331349,-1.774038,-1.353606,-1.888711,-0.4851472,-0.3683377,0.9547155,-1.44325,-0.2973716,-0.2108607,0.2690617,172.17.160.76,0.0.0.0,6,walking,0,2014-11-13 21:24:48.117,322,2014-11-13 21:24:38.284,0
2014-11-13 21:24:55.864,29482,982.7334,40.10425,-88.22172,231,-1,-1,10.09077,165,1415935357,-1.123734,0.1808929,0.4750366,-43.10166,1.79023,15.43555,131.2454,134.3286,10,-0.7792923,0.1440914,-2.081074,-1.348572,-1.869371,-0.4325857,-0.4527586,0.3159667,-1.89212,-0.2152908,-0.2045285,0.2174964,172.17.160.76,0.0.0.0,6,walking,0,2014-11-13 21:24:48.117,322,2014-11-13 21:24:38.284,0
2014-11-13 21:24:55.897,29483,982.7667,40.10425,-88.22172,231,-1,-1,10.09077,165,1415935357,-1.131561,0.2865295,0.3729095,-43.48046,-1.550278,14.99973,136.7731,139.8562,10,-0.8579102,0.3212417,-2.12549,-1.350222,-1.86308,-0.3682426,-0.8189583,0.241376,-2.084331,-0.2303406,-0.1790835,0.2062132,172.17.160.76,0.0.0.0,6,walking,0,2014-11-13 21:24:48.117,322,2014-11-13 21:24:38.284,0
2014-11-13 21:24:55.931,29484,982.8,40.10425,-88.22172,231,-1,-1,10.09077,165,1415935357,-1.031967,0.2151031,0.3405151,-43.30828,-5.44178,14.36276,143.9919,147.0751,10,-1.042241,-0.04193999,-2.249844,-1.359632,-1.850321,-0.2532735,-0.8835158,0.1678326,-2.259621,-0.1848035,-0.02720095,0.09095103,172.17.160.76,0.0.0.0,6,walking,0,2014-11-13 21:24:48.117,322,2014-11-13 21:24:38.284,0
2014-11-13 21:24:55.965,29485,982.8334,40.10425,-88.22172,231,-1,-1,10.09077,165,1415935357,-1.078598,0.4078674,0.3941193,-43.10165,-7.370316,14.63101,146.9368,150.02,10,-1.306431,0.3388351,-2.216067,-1.372399,-1.85111,-0.1816235,-1.19737,0.186101,-2.110804,-0.041242,0.06714556,0.1024814,172.17.160.76,0.0.0.0,6,walking,0,2014-11-13 21:24:48.117,322,2014-11-13 21:24:38.284,0
2014-11-13 21:24:55.998,29486,982.8667,40.10425,-88.22172,231,-1,-1,10.09077,165,1415935357,-1.190292,0.4015961,0.05758667,-42.24075,-11.67509,13.99405,154.9519,158.0351,10,-0.8361385,0.6474661,-2.545262,-1.386524,-1.837234,-0.1050331,-0.9740173,0.7121291,-2.512233,-0.3207987,0.3704712,-0.06155882,172.17.160.76,0.0.0.0,6,walking,0,2014-11-13 21:24:48.117,322,2014-11-13 21:24:38.284,0
2014-11-13 21:24:56.031,29487,982.9,40.10425,-88.22172,231,-1,-1,10.09077,165,1415935357,-0.7072144,0.5150604,0.1061249,-41.20765,-15.3944,14.19522,158.7512,161.8344,10,0.05653332,0.1904363,-2.082898,-1.382631,-1.813999,-0.007038734,-0.2087838,0.3784963,-2.180366,0.1059999,0.4365191,-0.1494522,172.17.160.76,0.0.0.0,6,walking,0,2014-11-13 21:24:48.117,322,2014-11-13 21:24:38.284,0
