time,timestamp,recordtime,lat,long,alt,speed,course,verticalAccuracy,horizontalAccuracy,locTimeStamp,accelerationX,accelerationY,accelerationZ,HeadingX,HeadingY,HeadingZ,TrueHeading,MagneticHeading,HeadingAccuracy,RotationX,RotationY,RotationZ,motionYaw,motionRoll,motionPitch,motionRotationRateX,motionRotationRateY,motionRotationRateZ,motionUserAccelerationX,motionUserAccelerationY,motionUserAccelerationZ,en0,pdp_ip0,DeviceOrientation,Activity,Activity Confidence,Activity Start,Steps,Last Step Date,State
2014-11-13 14:00:06.532,39390,1313,40.11404,-88.22441,225.1052,-1,-1,10,65.34356,1415908793,0.009613037,-0.02478027,-0.9983368,20.35055,-29.85379,6.675415,211.1528,214.2352,25,-0.05863109,-0.06491721,-0.01710602,-0.6858041,0.01132383,0.02480742,0.0004483457,-0.0001614858,2.655399e-05,0.000673303,0.000436592,-0.0006464407,172.17.160.76,10.175.81.193,5,stationary,2,2014-11-13 13:59:32.713,15,2014-11-13 13:57:29.604,0
2014-11-13 14:00:06.565,39391,1313.033,40.11404,-88.22441,225.1052,-1,-1,10,65.34356,1415908793,0.0118103,-0.02470398,-0.9990082,20.17827,-29.81934,6.843018,211.1499,214.2323,25,-0.05863588,-0.06703443,-0.01605567,-0.6858131,0.01128281,0.02481783,0.0004488585,0.0009005693,3.205556e-05,-0.001666062,3.500994e-05,0.001291631,172.17.160.76,10.175.81.193,5,stationary,2,2014-11-13 13:59:32.713,15,2014-11-13 13:57:29.604,0
2014-11-13 14:00:06.599,39392,1313.067,40.11404,-88.22441,225.1052,-1,-1,10,65.34356,1415908793,0.01261902,-0.02378845,-1.001053,20.04045,-29.81934,6.843018,211.1453,214.2277,25,-0.05970035,-0.06490869,-0.01604049,-0.6858376,0.01122386,0.02481778,-0.0006182839,-0.0001621137,3.036703e-05,0.0005901336,0.0001112493,0.0006209086,172.17.160.76,10.175.81.193,5,stationary,2,2014-11-13 13:59:32.713,15,2014-11-13 13:57:29.604,0
2014-11-13 14:00:06.632,39393,1313.1,40.11404,-88.22441,225.1052,-1,-1,10,65.34356,1415908793,0.01158142,-0.02520752,-0.997345,19.86817,-29.57815,7.278748,211.1414,214.2238,25,-0.05863509,-0.06597183,-0.01605007,-0.6858683,0.0112417,0.02476988,-0.0006116258,-0.0001680565,-0.001028975,0.001381007,0.000978899,-0.001422782,172.17.160.76,10.175.81.193,5,stationary,2,2014-11-13 13:59:32.713,15,2014-11-13 13:57:29.604,0
2014-11-13 14:00:06.665,39394,1313.133,40.11404,-88.22441,225.1052,-1,-1,10,65.34356,1415908793,0.008590698,-0.02560425,-0.9976654,20.385,-29.19914,7.446289,211.1489,214.2313,25,-0.05756343,-0.06279255,-0.01709883,-0.6858673,0.01120987,0.02478788,0.001516948,-0.0001616488,2.445967e-05,-0.0005708141,3.558405e-05,-0.0001106149,172.17.160.76,10.175.81.193,5,stationary,2,2014-11-13 13:59:32.713,15,2014-11-13 13:57:29.604,0
2014-11-13 14:00:06.699,39395,1313.167,40.11404,-88.22441,225.1052,-1,-1,10,65.34356,1415908793,0.01173401,-0.02502441,-0.9989319,20.28163,-29.2336,7.613892,211.1541,214.2365,25,-0.05756822,-0.06490976,-0.01604847,-0.6858755,0.0111774,0.02482017,-0.0006171446,0.001971832,0.00110505,0.001475816,0.0003730414,0.002498201,172.17.160.76,10.175.81.193,5,stationary,2,2014-11-13 13:59:32.713,15,2014-11-13 13:57:29.604,0
2014-11-13 14:00:06.732,39396,1313.2,40.11404,-88.22441,225.1052,-1,-1,10,65.34356,1415908793,0.0138092,-0.0247345,-0.9992523,20.55727,-29.3025,7.144714,211.1718,214.2542,25,-0.05756902,-0.06597236,-0.01605407,-0.6858854,0.01117639,0.02484357,0.001515594,-0.001225338,1.868397e-05,0.0005612994,-0.0001834037,0.0006970938,172.17.160.76,10.175.81.193,5,stationary,2,2014-11-13 13:59:32.713,15,2014-11-13 13:57:29.604,0
2014-11-13 14:00:06.765,39397,1313.233,40.11404,-88.22441,225.1052,-1,-1,10,65.34356,1415908793,0.01072693,-0.0252533,-0.9997559,19.97154,-29.81932,7.111206,211.171,214.2534,25,-0.05863828,-0.06596383,-0.01498854,-0.6859024,0.01130089,0.02481898,-0.0006102654,0.001966118,4.561639e-05,-0.0004634277,0.0004481482,0.001535539,172.17.160.76,10.175.81.193,5,stationary,2,2014-11-13 13:59:32.713,15,2014-11-13 13:57:29.604,0
2014-11-13 14:00:06.798,39398,1313.267,40.11404,-88.22441,225.1052,-1,-1,10,65.34356,1415908793,0.01083374,-0.02482605,-0.9976349,20.24718,-29.6815,6.977173,211.1712,214.2535,25,-0.05970195,-0.06703389,-0.01605167,-0.6859,0.01122454,0.02481569,0.0004555025,-0.002293401,-0.00104236,-0.002706446,0.0004601171,-0.001408466,172.17.160.76,10.175.81.193,5,stationary,2,2014-11-13 13:59:32.713,15,2014-11-13 13:57:29.604,0
2014-11-13 14:00:06.832,39399,1313.3,40.11404,-88.22441,225.1052,-1,-1,10,65.34356,1415908793,0.01335144,-0.02467346,-0.9973145,19.83372,-29.75041,6.977112,211.1607,214.243,25,-0.05756503,-0.06491775,-0.01711001,-0.6859086,0.01116916,0.02483364,0.001520566,0.0009012659,3.18702e-05,-0.0003317398,5.035242e-06,0.001994418,172.17.160.76,10.175.81.193,5,stationary,2,2014-11-13 13:59:32.713,15,2014-11-13 13:57:29.604,0
2014-11-13 14:00:06.866,39400,1313.333,40.11404,-88.22441,225.1052,-1,-1,10,65.34356,1415908793,0.01271057,-0.02371216,-0.9981079,20.41945,-29.64705,7.144775,211.1632,214.2456,25,-0.05863509,-0.06597183,-0.01605007,-0.6859189,0.01119442,0.02483035,0.0004566626,-0.0001689639,-0.001031331,-6.045579e-06,-8.980667e-05,0.001063431,172.17.160.76,10.175.81.193,5,stationary,2,2014-11-13 13:59:32.713,15,2014-11-13 13:57:29.604,0
2014-11-13 14:00:06.899,39401,1313.367,40.11404,-88.22441,225.1052,-1,-1,10,65.34356,1415908793,0.009109497,-0.02566528,-0.9960785,20.385,-29.81932,7.379395,211.1641,214.2464,25,-0.05757222,-0.06596437,-0.01499253,-0.6859243,0.01122213,0.02480497,0.0004560641,-0.0001692462,-0.001031467,0.001492132,0.001090268,0.001521514,172.17.160.76,10.175.81.193,5,stationary,2,2014-11-13 13:59:32.713,15,2014-11-13 13:57:29.604,0
2014-11-13 14:00:06.932,39402,1313.4,40.11404,-88.22441,225.1052,-1,-1,10,65.34356,1415908793,0.01019287,-0.02485657,-1.000107,20.62618,-30.12943,7.546997,211.1686,214.251,25,-0.05650535,-0.0649023,-0.01499093,-0.6859231,0.01121931,0.02482261,-0.0006083888,0.0009041496,4.197499e-05,-0.0003666161,-0.0002959091,0.001917837,172.17.160.76,10.175.81.193,5,stationary,2,2014-11-13 13:59:32.713,15,2014-11-13 13:57:29.604,0
2014-11-13 14:00:06.966,39403,1313.433,40.11404,-88.22441,225.1052,-1,-1,10,65.34356,1415908793,0.01498413,-0.02516174,-0.9983215,20.10936,-30.09496,7.647583,211.1605,214.2429,25,-0.05863509,-0.06597183,-0.01605007,-0.6859173,0.01122835,0.02481507,-0.002742409,-0.00122024,3.868099e-05,0.002798171,-0.000501808,-0.0008286596,172.17.160.76,10.175.81.193,5,stationary,2,2014-11-13 13:59:32.713,15,2014-11-13 13:57:29.604,0
2014-11-13 14:00:06.999,39404,1313.467,40.11404,-88.22441,225.1052,-1,-1,10,65.34356,1415908793,0.0118103,-0.02500916,-0.9979248,19.69589,-29.75041,7.446472,211.1523,214.2346,25,-0.05863428,-0.06490923,-0.01604448,-0.6859239,0.01139061,0.02478403,-0.0006092073,0.0009039813,4.173069e-05,0.001277935,0.0003369147,0.001092883,172.17.160.76,10.175.81.193,5,stationary,2,2014-11-13 13:59:32.713,15,2014-11-13 13:57:29.604,0
2014-11-13 14:00:07.032,39405,1313.5,40.11404,-88.22441,225.1052,-1,-1,10,65.34356,1415908793,0.01150513,-0.02511597,-1.00177,19.35134,-29.6815,7.178284,211.1283,214.2107,25,-0.05649976,-0.06598088,-0.0171196,-0.6859292,0.01147232,0.02477725,-0.0006071039,-0.0001667112,-0.0010255,0.0003417511,-0.0002344445,0.001702469,172.17.160.76,10.175.81.193,5,stationary,2,2014-11-13 13:59:32.713,15,2014-11-13 13:57:29.604,0
2014-11-13 14:00:07.066,39406,1313.533,40.11404,-88.22441,225.1052,-1,-1,10,65.34356,1415908793,0.009902954,-0.02528381,-0.9989777,19.3858,-29.64704,6.943726,211.1041,214.1865,25,-0.05969955,-0.06810448,-0.0171188,-0.6859439,0.01145997,0.02478504,-0.0006057437,0.001958105,-0.001014377,-0.0005156493,-0.0003182035,6.972686e-05,172.17.160.76,10.175.81.193,5,stationary,2,2014-11-13 13:59:32.713,15,2014-11-13 13:57:29.604,0
2014-11-13 14:00:07.099,39407,1313.567,40.11404,-88.22441,225.1052,-1,-1,10,65.34356,1415908793,0.01208496,-0.02418518,-0.9982147,19.52363,-29.92268,6.809692,211.0926,214.1749,25,-0.05863509,-0.06597183,-0.01605007,-0.6859679,0.01139719,0.02476911,-0.000606309,0.0009054475,4.38326e-05,0.001896955,0.0001694061,0.001154213,172.17.160.76,10.175.81.193,5,stationary,2,2014-11-13 13:59:32.713,15,2014-11-13 13:57:29.604,0
2014-11-13 14:00:07.132,39408,1313.6,40.11404,-88.22441,225.1052,-1,-1,10,65.34356,1415908793,0.01283264,-0.02536011,-1.001862,20.0749,-29.64704,7.07782,211.085,214.1674,25,-0.05756822,-0.06490976,-0.01604847,-0.6859777,0.01141892,0.02473959,0.0004617763,-0.0001659387,-0.001027391,0.000669784,0.0005518847,0.001414095,172.17.160.76,10.175.81.193,5,stationary,2,2014-11-13 13:59:32.713,15,2014-11-13 13:57:29.604,0
2014-11-13 14:00:07.166,39409,1313.633,40.11404,-88.22441,225.1052,-1,-1,10,65.34356,1415908793,0.009506226,-0.02561951,-0.99823,20.48837,-29.57813,7.144836,211.0959,214.1783,25,-0.05863588,-0.06703443,-0.01605567,-0.6859726,0.01148838,0.02476135,0.0004550741,-0.0001501289,0.00109558,0.001348033,-0.0006012912,-0.002234089,172.17.160.76,10.175.81.193,5,stationary,2,2014-11-13 13:59:32.713,15,2014-11-13 13:57:29.604,0
2014-11-13 14:00:07.199,39410,1313.667,40.11404,-88.22441,225.1052,-1,-1,10,65.34356,1415908793,0.0124054,-0.02442932,-1.000565,20.69509,-29.3714,7.480042,211.1062,214.1886,25,-0.05863428,-0.06490923,-0.01604448,-0.6859728,0.01134769,0.02481886,0.001524955,0.0009026761,3.551864e-05,-0.001410479,-0.001123633,0.0007568139,172.17.160.76,10.175.81.193,5,stationary,2,2014-11-13 13:59:32.713,15,2014-11-13 13:57:29.604,0
2014-11-13 14:00:07.233,39411,1313.7,40.11404,-88.22441,225.1052,-1,-1,10,65.34356,1415908793,0.01185608,-0.02485657,-0.9972229,20.69509,-29.16468,7.07782,211.1312,214.2136,25,-0.05863509,-0.06597183,-0.01605007,-0.6859619,0.01137377,0.02480757,0.0004570398,-0.001222135,2.826115e-05,0.001035374,0.0003757058,-0.0009369279,172.17.160.76,10.175.81.193,5,stationary,2,2014-11-13 13:59:32.713,15,2014-11-13 13:57:29.604,0
2014-11-13 14:00:07.266,39412,1313.733,40.11404,-88.22441,225.1052,-1,-1,10,65.34356,1415908793,0.01274109,-0.02488708,-0.99823,20.52282,-29.40587,7.111328,211.1432,214.2256,25,-0.05970195,-0.06703389,-0.01605167,-0.6859629,0.01147045,0.02478227,0.0004607564,-0.0001570472,3.617139e-05,0.0016864,0.0001367908,0.0003290748,172.17.160.76,10.175.81.193,5,stationary,2,2014-11-13 13:59:32.713,15,2014-11-13 13:57:29.604,0
2014-11-13 14:00:07.299,39413,1313.767,40.11404,-88.22441,225.1052,-1,-1,10,65.34356,1415908793,0.01008606,-0.02423096,-0.9993134,20.59172,-29.6815,6.843201,211.1486,214.231,25,-0.05756742,-0.06384715,-0.01604288,-0.6859599,0.01137941,0.0247754,0.0004596774,-0.001220379,3.045854e-05,-0.0017016,-0.0007093162,0.002024011,172.17.160.76,10.175.81.193,5,stationary,2,2014-11-13 13:59:32.713,15,2014-11-13 13:57:29.604,0
2014-11-13 14:00:07.332,39414,1313.8,40.11404,-88.22441,225.1052,-1,-1,10,65.34356,1415908793,0.01351929,-0.02375793,-0.9989777,20.97074,-30.06052,7.144836,211.1609,214.2433,25,-0.05863908,-0.06702644,-0.01499413,-0.6859524,0.01134462,0.02476534,-0.001669529,-0.001227799,-0.001023165,0.001278124,-7.850001e-05,0.001902584,172.17.160.76,10.175.81.193,5,stationary,2,2014-11-13 13:59:32.713,15,2014-11-13 13:57:29.604,0
2014-11-13 14:00:07.366,39415,1313.833,40.11404,-88.22441,225.1052,-1,-1,10,65.34356,1415908793,0.0128479,-0.02412415,-0.9957886,20.90183,-30.26726,7.27887,211.1738,214.2562,25,-0.05650136,-0.06810609,-0.01713078,-0.6859691,0.01140723,0.02477063,0.0004669496,0.000888252,-0.00208161,0.002115802,0.001010161,0.0006505207,172.17.160.76,10.175.81.193,5,stationary,2,2014-11-13 13:59:32.713,15,2014-11-13 13:57:29.604,0
2014-11-13 14:00:07.399,39416,1313.867,40.11404,-88.22441,225.1052,-1,-1,10,65.34356,1415908793,0.01217651,-0.02436829,-1.003067,20.86738,-30.2328,7.379456,211.1773,214.2597,25,-0.05756582,-0.06598035,-0.0171156,-0.6859909,0.01146764,0.02471435,0.0004590599,-0.0001584634,3.572619e-05,0.001033062,0.001075966,0.001475197,172.17.160.76,10.175.81.193,5,stationary,2,2014-11-13 13:59:32.713,15,2014-11-13 13:57:29.604,0
2014-11-13 14:00:07.432,39417,1313.9,40.11404,-88.22441,225.1052,-1,-1,10,65.34356,1415908793,0.01008606,-0.02500916,-0.9934692,20.04045,-30.50845,7.647705,211.1635,214.2459,25,-0.05863668,-0.06809703,-0.01606126,-0.6859944,0.01144309,0.02473806,0.0004654077,-0.0001643835,-0.001023161,-0.0006971473,-0.0004109484,-0.001561607,172.17.160.76,10.175.81.193,5,stationary,2,2014-11-13 13:59:32.713,15,2014-11-13 13:57:29.604,0
2014-11-13 14:00:07.466,39418,1313.933,40.11404,-88.22441,225.1052,-1,-1,10,65.34356,1415908793,0.01217651,-0.02427673,-0.9989624,19.97154,-30.71518,7.245483,211.1355,214.2179,25,-0.05756503,-0.06491775,-0.01711001,-0.686002,0.0113661,0.02472389,0.001527884,-0.0001576982,3.425872e-05,-0.001276325,-0.0002877834,0.006160568,172.17.160.76,10.175.81.193,5,stationary,2,2014-11-13 13:59:32.713,15,2014-11-13 13:57:29.604,0
2014-11-13 14:00:07.499,39419,1313.967,40.11404,-88.22441,225.1052,-1,-1,10,65.34356,1415908793,0.01072693,-0.0249939,-0.9990387,20.14381,-30.74963,7.211914,211.1247,214.2071,25,-0.05756822,-0.06490976,-0.01604847,-0.6860132,0.0114604,0.02467812,-0.000608168,-0.0001487675,0.001103626,0.002505132,0.0005056979,0.001613503,172.17.160.76,10.175.81.193,5,stationary,2,2014-11-13 13:59:32.713,15,2014-11-13 13:57:29.604,0
2014-11-13 14:00:07.532,39420,1314,40.11404,-88.22441,225.1052,-1,-1,10,65.34356,1415908793,0.008636475,-0.02554321,-0.995636,21.00519,-30.50844,6.910339,211.1243,214.2066,25,-0.05757302,-0.06702697,-0.01499812,-0.6860174,0.01148456,0.02469337,0.0004615208,0.0009049011,4.359218e-05,0.0007262251,9.369085e-05,-0.0005081216,172.17.160.76,10.175.81.193,5,stationary,2,2014-11-13 13:59:32.713,15,2014-11-13 13:57:29.604,0
2014-11-13 14:00:07.566,39421,1314.033,40.11404,-88.22441,225.1052,-1,-1,10,65.34356,1415908793,0.0112915,-0.02412415,-1.001099,20.83291,-29.92269,7.010864,211.1423,214.2247,25,-0.0554353,-0.06384822,-0.01605087,-0.6860197,0.01139583,0.02472706,-0.0006023175,-0.0001659161,-0.001019628,-0.00275563,-0.0008186747,0.003993404,172.17.160.76,10.175.81.193,5,stationary,2,2014-11-13 13:59:32.713,15,2014-11-13 13:57:29.604,0
2014-11-13 14:00:07.599,39422,1314.067,40.11404,-88.22441,225.1052,-1,-1,10,65.34356,1415908793,0.01419067,-0.02436829,-0.9980011,20.55727,-29.78487,6.809814,211.1463,214.2286,25,-0.05757621,-0.06701898,-0.01393659,-0.6860397,0.01143636,0.02476032,0.0004631382,-0.0001565685,4.062091e-05,0.001949355,0.0007251942,-0.002523385,172.17.160.76,10.175.81.193,5,stationary,2,2014-11-13 13:59:32.713,15,2014-11-13 13:57:29.604,0
2014-11-13 14:00:07.632,39423,1314.1,40.11404,-88.22441,225.1052,-1,-1,10,65.34356,1415908793,0.01191711,-0.02479553,-1.000458,20.00598,-29.71596,6.876892,211.1473,214.2297,25,-0.05970354,-0.0649007,-0.01497895,-0.6860089,0.01149214,0.02472356,-0.000607242,-0.00121048,0.0011005,0.0006423668,0.001054662,0.001016924,172.17.160.76,10.175.81.193,5,stationary,2,2014-11-13 13:59:32.713,15,2014-11-13 13:57:29.604,0
2014-11-13 14:00:07.666,39424,1314.133,40.11404,-88.22441,225.1052,-1,-1,10,65.34356,1415908793,0.009674072,-0.02461243,-0.9974518,20.00598,-29.78487,6.809875,211.1322,214.2145,25,-0.05756822,-0.06490976,-0.01604847,-0.6859985,0.01157897,0.02472901,-0.0006044699,-0.0012186,3.882531e-05,0.001333767,-0.0009693108,-0.0005253493,172.17.160.76,10.175.81.193,5,stationary,2,2014-11-13 13:59:32.713,15,2014-11-13 13:57:29.604,0
2014-11-13 14:00:07.699,39425,1314.167,40.11404,-88.22441,225.1052,-1,-1,10,65.34356,1415908793,0.0111084,-0.0239563,-0.9966278,20.07489,-29.64705,7.010986,211.1308,214.2131,25,-0.05650376,-0.0670355,-0.01606365,-0.6860126,0.01156538,0.02475914,0.0004620391,-0.0001571166,4.029776e-05,0.0002334638,-3.892348e-05,0.001183047,172.17.160.76,10.175.81.193,5,stationary,2,2014-11-13 13:59:32.713,15,2014-11-13 13:57:29.604,0
2014-11-13 14:00:07.732,39426,1314.2,40.11404,-88.22441,225.1052,-1,-1,10,65.34356,1415908793,0.01365662,-0.02459717,-1.000854,20.1438,-29.57814,6.94397,211.1298,214.2122,25,-0.05756982,-0.06703496,-0.01605966,-0.6860217,0.01154134,0.02472577,-0.0006030802,0.0009157137,0.001114192,-0.00042916,0.0007669488,0.002999946,172.17.160.76,10.175.81.193,5,stationary,2,2014-11-13 13:59:32.713,15,2014-11-13 13:57:29.604,0
2014-11-13 14:00:07.766,39427,1314.233,40.11404,-88.22441,225.1052,-1,-1,10,65.34356,1415908793,0.01168823,-0.02403259,-1.000137,20.35054,-30.06052,6.876953,211.1281,214.2105,25,-0.05970434,-0.06596331,-0.01498454,-0.686038,0.01161189,0.02470024,-0.0006020513,-0.001217636,4.134793e-05,0.001331369,0.0004820324,-0.002752803,172.17.160.76,10.175.81.193,5,stationary,2,2014-11-13 13:59:32.713,15,2014-11-13 13:57:29.604,0
2014-11-13 14:00:07.799,39428,1314.267,40.11404,-88.22441,225.1052,-1,-1,10,65.34356,1415908793,0.01182556,-0.02497864,-0.9998627,20.385,-30.2328,7.044556,211.1256,214.2079,25,-0.05863588,-0.06703443,-0.01605567,-0.6860244,0.01157243,0.02465355,-0.0005977278,0.0008989454,-0.001009129,-0.0009180249,-0.001121045,-0.0008438452,172.17.160.76,10.175.81.193,5,stationary,2,2014-11-13 13:59:32.713,15,2014-11-13 13:57:29.604,0
2014-11-13 14:00:07.832,39429,1314.3,40.11404,-88.22441,225.1052,-1,-1,10,65.34356,1415908793,0.01321411,-0.02464294,-1.002838,21.00519,-30.2328,6.70929,211.1306,214.2129,25,-0.05863588,-0.06703443,-0.01605567,-0.6860165,0.01150552,0.0246357,-0.0006028956,-0.001218892,4.113035e-05,-0.002850047,0.0002191464,0.001827654,172.17.160.76,10.175.81.193,5,stationary,2,2014-11-13 13:59:32.713,15,2014-11-13 13:57:29.604,0
2014-11-13 14:00:07.866,39430,1314.333,40.11404,-88.22441,225.1052,-1,-1,10,65.34356,1415908793,0.01217651,-0.02490234,-0.9951324,21.31528,-29.85381,6.94397,211.1545,214.2369,25,-0.05756982,-0.06703496,-0.01605966,-0.6859943,0.0115302,0.02461001,-0.001667773,0.000906574,5.621059e-05,0.001687663,-3.541539e-05,-0.003207398,172.17.160.76,[inet_ntoa er,5,stationary,2,2014-11-13 13:59:32.713,15,2014-11-13 13:57:29.604,0
2014-11-13 14:00:07.899,39431,1314.367,40.11404,-88.22441,225.1052,-1,-1,10,65.34356,1415908793,0.01119995,-0.02438354,-0.9994812,21.14301,-29.88826,6.977539,211.1654,214.2477,25,-0.05756822,-0.06490976,-0.01604847,-0.686025,0.01152057,0.02460029,0.0004677509,0.0009071242,5.100639e-05,-0.002025865,0.0003363335,0.001019637,172.17.160.76,10.175.81.193,5,stationary,2,2014-11-13 13:59:32.713,15,2014-11-13 13:57:29.604,0
2014-11-13 14:00:07.932,39432,1314.4,40.11404,-88.22441,225.1052,-1,-1,10,65.34356,1415908793,0.009963989,-0.02571106,-0.9995422,20.764,-30.12945,7.078125,211.1714,214.2538,25,-0.05756503,-0.06491775,-0.01711001,-0.6860234,0.01150275,0.02462392,0.0004651302,-0.002281114,3.413356e-05,-0.0002990593,0.0002378833,0.0001495097,172.17.160.76,10.175.81.193,5,stationary,2,2014-11-13 13:59:32.713,15,2014-11-13 13:57:29.604,0
2014-11-13 14:00:07.966,39433,1314.433,40.11404,-88.22441,225.1052,-1,-1,10,65.34356,1415908793,0.01193237,-0.02400208,-1,20.48837,-30.06054,6.809998,211.1746,214.257,25,-0.05649656,-0.06598887,-0.01818113,-0.6860213,0.01146412,0.02463188,0.001532578,-0.0001569326,4.126467e-05,-0.002534003,-5.932992e-05,0.002087623,172.17.160.76,10.175.81.193,5,stationary,2,2014-11-13 13:59:32.713,15,2014-11-13 13:57:29.604,0
2014-11-13 14:00:07.999,39434,1314.467,40.11404,-88.22441,225.1052,-1,-1,10,65.34356,1415908793,0.01289368,-0.0241394,-1.001572,20.72955,-30.09499,6.508301,211.1776,214.26,25,-0.05756582,-0.06598035,-0.0171156,-0.6860349,0.01144818,0.0246192,-0.0006041188,-0.001211095,0.001105036,0.0004879097,0.0006146333,-0.000368547,172.17.160.76,10.175.81.193,5,stationary,2,2014-11-13 13:59:32.713,15,2014-11-13 13:57:29.604,0
2014-11-13 14:00:08.032,39435,1314.5,40.11404,-88.22441,225.1052,-1,-1,10,65.34356,1415908793,0.01087952,-0.0252533,-0.9975281,20.385,-29.88827,6.910583,211.1813,214.2637,25,-0.05863509,-0.06597183,-0.01605007,-0.686031,0.01153797,0.02462549,0.0004688058,-0.0001649021,-0.00101653,0.001359456,0.000483592,-0.001941389,172.17.160.76,10.175.81.193,5,stationary,2,2014-11-13 13:59:32.713,15,2014-11-13 13:57:29.604,0
2014-11-13 14:00:08.066,39436,1314.533,40.11404,-88.22441,225.1052,-1,-1,10,65.34356,1415908793,0.01023865,-0.0249939,-0.9994659,20.31609,-29.26808,7.044678,211.1897,214.2721,25,-0.05863828,-0.06596383,-0.01498854,-0.6860172,0.01145911,0.02466399,0.0004729156,0.0008986846,-0.001008354,-0.00020965,-0.00114112,0.0006830806,172.17.160.76,10.175.81.193,5,stationary,2,2014-11-13 13:59:32.713,15,2014-11-13 13:57:29.604,0
2014-11-13 14:00:08.099,39437,1314.567,40.11404,-88.22441,225.1052,-1,-1,10,65.34356,1415908793,0.01040649,-0.02482605,-1.001526,20.24718,-29.19917,7.111694,211.1944,214.2768,25,-0.05969875,-0.06278349,-0.0160293,-0.686014,0.01143549,0.02467121,-0.0005974555,-0.0001560876,5.146146e-05,0.0001801726,0.0002546466,0.001507147,172.17.160.76,10.175.81.193,5,stationary,2,2014-11-13 13:59:32.713,15,2014-11-13 13:57:29.604,0
2014-11-13 14:00:08.132,39438,1314.6,40.11404,-88.22441,225.1052,-1,-1,10,65.34356,1415908793,0.01037598,-0.02468872,-0.997467,20.41946,-29.16472,6.541931,211.2098,214.2921,25,-0.05863349,-0.06384663,-0.01603889,-0.6860074,0.01145042,0.02465645,-0.001664704,-0.001218478,4.976452e-05,-0.0001704404,0.0009570519,0.001629411,172.17.160.76,10.175.81.193,5,stationary,2,2014-11-13 13:59:32.713,15,2014-11-13 13:57:29.604,0
2014-11-13 14:00:08.166,39439,1314.633,40.11404,-88.22441,225.1052,-1,-1,10,65.34356,1415908793,0.01184082,-0.02474976,-1.001236,20.76401,-29.7849,6.474854,211.2211,214.3035,25,-0.05863509,-0.06597183,-0.01605007,-0.6860054,0.01146461,0.02465638,0.001535515,0.001967287,5.444431e-05,0.0004562371,1.093667e-05,-6.447532e-05,172.17.160.76,10.175.81.193,5,stationary,2,2014-11-13 13:59:32.713,15,2014-11-13 13:57:29.604,0
2014-11-13 14:00:08.199,39440,1314.667,40.11404,-88.22441,225.1052,-1,-1,10,65.34356,1415908793,0.01208496,-0.02546692,-1.003159,20.72955,-30.095,6.441345,211.2236,214.3059,25,-0.0554345,-0.06278562,-0.01604528,-0.6860096,0.01147781,0.02465988,-0.0005984771,-0.0001571322,5.115138e-05,1.57948e-05,-0.0002754776,0.002819198,172.17.160.76,10.175.81.193,5,stationary,2,2014-11-13 13:59:32.713,15,2014-11-13 13:57:29.604,0
2014-11-13 14:00:08.232,39441,1314.7,40.11404,-88.22441,225.1052,-1,-1,10,65.34356,1415908793,0.01092529,-0.0242157,-0.9970551,20.93629,-29.68154,6.709473,211.2365,214.3188,25,-0.05970354,-0.0649007,-0.01497895,-0.6860022,0.01148332,0.02468604,0.0004678911,-0.0001483977,0.00111138,-0.001027298,0.0003610193,0.002849007,172.17.160.76,10.175.81.193,5,stationary,2,2014-11-13 13:59:32.713,15,2014-11-13 13:57:29.604,0
2014-11-13 14:00:08.265,39442,1314.733,40.11404,-88.22441,225.1052,-1,-1,10,65.34356,1415908793,0.01318359,-0.02468872,-1.000107,20.93629,-29.81936,6.575439,211.2442,214.3266,25,-0.05863828,-0.06596383,-0.01498854,-0.685995,0.01148809,0.02467664,-0.0005953963,-0.0001563034,5.370913e-05,-0.0005590481,0.000458437,0.002574526,172.17.160.76,10.175.81.193,5,stationary,2,2014-11-13 13:59:32.713,15,2014-11-13 13:57:29.604,0
2014-11-13 14:00:08.299,39443,1314.767,40.11404,-88.22441,225.1052,-1,-1,10,65.34356,1415908793,0.010849,-0.025177,-0.9963074,20.90183,-29.50926,6.541931,211.259,214.3414,25,-0.05757062,-0.06809756,-0.01606525,-0.6859874,0.01149589,0.02464703,-0.001659641,-0.001226931,-0.001009571,-0.0007347012,0.0001541775,0.002239473,172.17.160.76,10.175.81.193,5,stationary,2,2014-11-13 13:59:32.713,15,2014-11-13 13:57:29.604,0
2014-11-13 14:00:08.331,39444,1314.8,40.11404,-88.22441,225.1052,-1,-1,10,65.34356,1415908793,0.01147461,-0.0249939,-1.000717,20.41946,-29.64709,6.541931,211.2716,214.354,25,-0.05863588,-0.06703443,-0.01605567,-0.6859965,0.01150091,0.02467511,0.0004706857,0.0009048205,5.50659e-05,-0.0004955703,-0.0008400886,-0.000278977,172.17.160.76,10.175.81.193,5,stationary,2,2014-11-13 13:59:32.713,15,2014-11-13 13:57:29.604,0
2014-11-13 14:00:08.365,39445,1314.833,40.11404,-88.22441,225.1052,-1,-1,10,65.34356,1415908793,0.01307678,-0.02523804,-1.001816,20.59174,-30.02611,7.111755,211.2699,214.3522,25,-0.05863509,-0.06597183,-0.01605007,-0.6859894,0.01147596,0.02469436,0.0004728936,-0.0001661839,-0.001012158,-0.0006537316,-0.001217572,-0.0001418365,172.17.160.76,10.175.81.193,5,stationary,2,2014-11-13 13:59:32.713,15,2014-11-13 13:57:29.604,0
2014-11-13 14:00:08.399,39446,1314.867,40.11404,-88.22441,225.1052,-1,-1,10,65.34356,1415908793,0.01153564,-0.02490234,-0.9972076,20.41946,-29.85383,6.944153,211.2697,214.3521,25,-0.05863988,-0.06808904,-0.01499972,-0.6859777,0.01151195,0.02470182,0.0004764297,0.004093604,7.433393e-05,0.001568598,-0.0005387318,-0.002187112,172.17.160.76,10.175.81.193,5,stationary,2,2014-11-13 13:59:32.713,15,2014-11-13 13:57:29.604,0
2014-11-13 14:00:08.432,39447,1314.9,40.11404,-88.22441,225.1052,-1,-1,10,65.34356,1415908793,0.01078796,-0.02426147,-0.9994507,20.76402,-30.40511,6.676025,211.2667,214.3491,25,-0.05756982,-0.06703496,-0.01605966,-0.6859766,0.01148792,0.02471536,0.000472959,-0.0001571342,5.186628e-05,5.148946e-05,-0.0001895008,0.002420984,172.17.160.76,10.175.81.193,5,stationary,2,2014-11-13 13:59:32.713,15,2014-11-13 13:57:29.604,0
2014-11-13 14:00:08.466,39448,1314.933,40.11404,-88.22441,225.1052,-1,-1,10,65.34356,1415908793,0.009460449,-0.02461243,-0.9985199,20.59174,-29.81936,6.508423,211.273,214.3554,25,-0.05756662,-0.06704295,-0.0171212,-0.6859734,0.01144596,0.02472019,-0.0005943018,-0.001219866,5.016058e-05,0.0008868903,-4.734207e-05,0.001246419,172.17.160.76,10.175.81.193,5,stationary,2,2014-11-13 13:59:32.713,15,2014-11-13 13:57:29.604,0
2014-11-13 14:00:08.499,39449,1314.967,40.11404,-88.22441,225.1052,-1,-1,10,65.34356,1415908793,0.01013184,-0.02494812,-0.9991608,20.55727,-29.99164,6.608948,211.2734,214.3558,25,-0.05756582,-0.06598035,-0.0171156,-0.6859935,0.01146436,0.02471012,-0.0005963226,-0.003345365,3.884134e-05,0.001906086,-8.792773e-05,-0.000264163,172.17.160.76,10.175.81.193,5,stationary,2,2014-11-13 13:59:32.713,15,2014-11-13 13:57:29.604,0
2014-11-13 14:00:08.532,39450,1315,40.11404,-88.22441,225.1052,-1,-1,10,65.34356,1415908793,0.01269531,-0.02377319,-0.9988556,20.59172,-29.33699,7.111755,211.2845,214.3668,25,-0.05756902,-0.06597236,-0.01605407,-0.6859981,0.01146332,0.02471222,0.000471871,-0.0001583231,5.155889e-05,0.001006864,0.0002040893,-2.006227e-05,172.17.160.76,10.175.81.193,5,stationary,2,2014-11-13 13:59:32.713,15,2014-11-13 13:57:29.604,0
2014-11-13 14:00:08.566,39451,1315.033,40.11404,-88.22441,225.1052,-1,-1,10,65.34356,1415908793,0.01213074,-0.02488708,-1.000412,20.66063,-29.61263,7.111755,211.2898,214.3721,25,-0.05650376,-0.0670355,-0.01606365,-0.6860013,0.01147681,0.02471365,0.0004743454,-0.001219814,4.804903e-05,0.001222264,0.0009379389,0.0007732048,172.17.160.76,10.175.81.193,5,stationary,2,2014-11-13 13:59:32.713,15,2014-11-13 13:57:29.604,0
2014-11-13 14:00:08.599,39452,1315.067,40.11404,-88.22441,225.1052,-1,-1,10,65.34356,1415908793,0.01060486,-0.02470398,-0.9997559,20.48835,-29.57817,7.279297,211.297,214.3794,25,-0.05863588,-0.06703443,-0.01605567,-0.6860155,0.01147823,0.0247248,0.001540676,-0.0001582793,4.949865e-05,-0.0003355502,-0.0008514459,-0.001302283,172.17.160.76,10.175.81.193,5,stationary,2,2014-11-13 13:59:32.713,15,2014-11-13 13:57:29.604,0
2014-11-13 14:00:08.632,39453,1315.1,40.11404,-88.22441,225.1052,-1,-1,10,65.34356,1415908793,0.01220703,-0.02471924,-0.9994812,20.35054,-29.92272,7.145264,211.2945,214.3769,25,-0.0554353,-0.06384822,-0.01605087,-0.6860195,0.01146609,0.02472227,0.0004734603,-0.001220698,4.780463e-05,-7.927926e-05,-0.0001978542,0.003519697,172.17.160.76,10.175.81.193,5,stationary,2,2014-11-13 13:59:32.713,15,2014-11-13 13:57:29.604,0
2014-11-13 14:00:08.666,39454,1315.133,40.11404,-88.22441,225.1052,-1,-1,10,65.34356,1415908793,0.0120697,-0.0243988,-0.9992523,20.48835,-29.92272,7.480469,211.2943,214.3766,25,-0.05650216,-0.06491029,-0.01605247,-0.6860176,0.01145856,0.02470945,-0.000591459,0.0009045738,6.288704e-05,0.0007522164,-1.230414e-05,0.0001479074,172.17.160.76,10.175.81.193,5,stationary,2,2014-11-13 13:59:32.713,15,2014-11-13 13:57:29.604,0
2014-11-13 14:00:08.699,39455,1315.167,40.11404,-88.22441,225.1052,-1,-1,10,65.34356,1415908793,0.01333618,-0.02424622,-0.9986725,20.38499,-29.81935,6.910645,211.2949,214.3773,25,-0.05863509,-0.06597183,-0.01605007,-0.6860126,0.01150677,0.02472083,0.001541078,0.00196603,6.038475e-05,0.0005666983,0.0003195052,0.0003759546,172.17.160.76,10.175.81.193,5,stationary,2,2014-11-13 13:59:32.713,15,2014-11-13 13:57:29.604,0
2014-11-13 14:00:08.732,39456,1315.2,40.11404,-88.22441,225.1052,-1,-1,10,65.34356,1415908793,0.01029968,-0.02438354,-0.9988251,20.21271,-30.06054,6.676025,211.2869,214.3693,25,-0.05756902,-0.06597236,-0.01605407,-0.6860073,0.01159365,0.02471042,-0.0005908228,-0.002281414,4.803006e-05,0.001746331,0.0004616921,0.0009550426,172.17.160.76,10.175.81.193,5,stationary,2,2014-11-13 13:59:32.713,15,2014-11-13 13:57:29.604,0
2014-11-13 14:00:08.766,39457,1315.233,40.11404,-88.22441,225.1052,-1,-1,10,65.34356,1415908793,0.01271057,-0.02450562,-0.996994,20.28162,-29.99163,6.139771,211.2833,214.3657,25,-0.05969795,-0.06597929,-0.01710761,-0.6859862,0.0114965,0.02473666,-0.001654817,0.0009058538,6.86887e-05,-0.001772886,-0.001404166,0.0004519751,172.17.160.76,10.175.81.193,5,stationary,2,2014-11-13 13:59:32.713,15,2014-11-13 13:57:29.604,0
2014-11-13 14:00:08.799,39458,1315.267,40.11404,-88.22441,225.1052,-1,-1,10,65.34356,1415908793,0.01325989,-0.02513123,-1.00116,20.48835,-30.06054,6.608948,211.2753,214.3577,25,-0.05650296,-0.06597289,-0.01605806,-0.6860048,0.0114358,0.02474312,-0.0005905569,-0.001220425,5.341686e-05,0.00127852,0.000234981,0.002634518,172.17.160.76,10.175.81.193,5,stationary,2,2014-11-13 13:59:32.713,15,2014-11-13 13:57:29.604,0
2014-11-13 14:00:08.832,39459,1315.3,40.11404,-88.22441,225.1052,-1,-1,10,65.34356,1415908793,0.01062012,-0.02484131,-0.9979248,20.38499,-30.02608,6.709534,211.273,214.3553,25,-0.05756582,-0.06598035,-0.0171156,-0.6860085,0.01143235,0.0247401,-0.00165292,-0.0001656429,-0.0009985931,9.178317e-05,0.0004608457,-0.001561535,172.17.160.76,10.175.81.193,5,stationary,2,2014-11-13 13:59:32.713,15,2014-11-13 13:57:29.604,0
2014-11-13 14:00:08.866,39460,1315.333,40.11404,-88.22441,225.1052,-1,-1,10,65.34356,1415908793,0.009658813,-0.02613831,-0.9991455,20.38499,-29.75044,7.044739,211.2721,214.3544,25,-0.05863588,-0.06703443,-0.01605567,-0.6860075,0.01147507,0.02474779,0.0004797778,0.0009052028,6.21438e-05,1.855938e-05,-0.001118389,0.002008342,172.17.160.76,10.175.81.193,5,stationary,2,2014-11-13 13:59:32.713,15,2014-11-13 13:57:29.604,0
2014-11-13 14:00:08.899,39461,1315.367,40.11404,-88.22441,225.1052,-1,-1,10,65.34356,1415908793,0.01306152,-0.02516174,-0.9998474,20.04043,-30.02609,6.977722,211.2649,214.3473,25,-0.05756822,-0.06490976,-0.01604847,-0.6860195,0.01136099,0.02479283,0.0004812529,-0.001228808,-0.001010661,-0.001698439,-0.001348019,0.0004826503,172.17.160.76,10.175.81.193,5,stationary,2,2014-11-13 13:59:32.713,15,2014-11-13 13:57:29.604,0
2014-11-13 14:00:08.932,39462,1315.4,40.11404,-88.22441,225.1052,-1,-1,10,65.34356,1415908793,0.009765625,-0.02430725,-0.9961853,20.5228,-30.095,6.977722,211.2652,214.3476,25,-0.05756503,-0.06491775,-0.01711001,-0.6860227,0.01135524,0.02480228,-0.000587474,-0.0001581407,6.036815e-05,0.001710023,-0.0003620097,-0.000219423,172.17.160.76,10.175.81.193,5,stationary,2,2014-11-13 13:59:32.713,15,2014-11-13 13:57:29.604,0
2014-11-13 14:00:08.965,39463,1315.433,40.11404,-88.22441,225.1052,-1,-1,10,65.34356,1415908793,0.01002502,-0.02558899,-1.001328,20.72953,-30.095,6.776611,211.2671,214.3495,25,-0.05969635,-0.06385408,-0.01709643,-0.6860156,0.0113837,0.02475885,-0.0005952553,-0.001205118,0.002177713,-0.001614337,0.0004490725,0.003443439,172.17.160.76,10.175.81.193,5,stationary,2,2014-11-13 13:59:32.713,15,2014-11-13 13:57:29.604,0
2014-11-13 14:00:08.999,39464,1315.467,40.11404,-88.22441,225.1052,-1,-1,10,65.34356,1415908793,0.01112366,-0.02508545,-1.001877,20.69508,-29.57817,6.139771,211.2745,214.3568,25,-0.05863349,-0.06384663,-0.01603889,-0.6860375,0.01132118,0.02476514,0.0004777349,-0.0001598375,5.610163e-05,-0.001490804,-0.0009637113,0.00234536,172.17.160.76,10.175.81.193,5,stationary,2,2014-11-13 13:59:32.713,15,2014-11-13 13:57:29.604,0
2014-11-13 14:00:09.032,39465,1315.5,40.11404,-88.22441,225.1052,-1,-1,10,65.34356,1415908793,0.0113678,-0.02479553,-0.9985504,20.41943,-29.7849,6.005676,211.2766,214.359,25,-0.05756582,-0.06598035,-0.0171156,-0.6860409,0.01134718,0.02475802,-0.001651756,-0.001219995,6.006805e-05,0.001046673,9.72893e-05,-0.0009353982,172.17.160.76,10.175.81.193,5,stationary,2,2014-11-13 13:59:32.713,15,2014-11-13 13:57:29.604,0
2014-11-13 14:00:09.066,39466,1315.533,40.11404,-88.22441,225.1052,-1,-1,10,65.34356,1415908793,0.01329041,-0.02470398,-0.9992828,20.24715,-29.75044,6.240295,211.275,214.3574,25,-0.05756902,-0.06597236,-0.01605407,-0.6860401,0.0113755,0.02475657,-0.000586725,0.001975106,0.00113432,-3.969367e-06,-4.149446e-05,0.001078476,172.17.160.76,172.17.160.76,5,stationary,2,2014-11-13 13:59:32.713,15,2014-11-13 13:57:29.604,0
2014-11-13 14:00:09.099,39467,1315.567,40.11404,-88.22441,225.1052,-1,-1,10,65.34356,1415908793,0.009902954,-0.02462769,-0.9965973,20.76399,-30.19836,6.676025,211.2745,214.3568,25,-0.05650056,-0.06704348,-0.01712519,-0.6860515,0.01145772,0.02474115,-0.0005839175,-0.002291181,-0.001011232,0.001836444,3.464635e-05,0.0003454976,172.17.160.76,10.175.81.193,5,stationary,2,2014-11-13 13:59:32.713,15,2014-11-13 13:57:29.604,0
2014-11-13 14:00:09.132,39468,1315.6,40.11404,-88.22441,225.1052,-1,-1,10,65.34356,1415908793,0.008407593,-0.02484131,-0.9994812,21.28082,-29.81935,6.575439,211.2931,214.3755,25,-0.05863588,-0.06703443,-0.01605567,-0.6860683,0.01136298,0.02474933,0.0004832203,-0.0001675323,-0.001004176,-0.001685179,-0.0007506332,-0.002156066,172.17.160.76,10.175.81.193,5,stationary,2,2014-11-13 13:59:32.713,15,2014-11-13 13:57:29.604,0
2014-11-13 14:00:09.166,39469,1315.633,40.11404,-88.22441,225.1052,-1,-1,10,65.34356,1415908793,0.01470947,-0.02400208,-1.001373,21.21191,-29.4748,6.709473,211.3073,214.3897,25,-0.05863428,-0.06490923,-0.01604448,-0.6860705,0.01128482,0.02476588,-0.000587072,-0.00122227,5.567295e-05,0.0007428064,-0.0004746848,0.002254199,172.17.160.76,10.175.81.193,5,stationary,2,2014-11-13 13:59:32.713,15,2014-11-13 13:57:29.604,0
2014-11-13 14:00:09.199,39470,1315.667,40.11404,-88.22441,225.1052,-1,-1,10,65.34356,1415908793,0.01028442,-0.02397156,-0.9951324,20.86736,-29.33698,7.044678,211.3332,214.4155,25,-0.05863828,-0.06596383,-0.01498854,-0.6860764,0.01140257,0.02473708,-0.0005824224,0.000904695,6.818875e-05,0.003310635,0.000732481,-0.001744226,172.17.160.76,10.175.81.193,5,stationary,2,2014-11-13 13:59:32.713,15,2014-11-13 13:57:29.604,0
2014-11-13 14:00:09.232,39471,1315.7,40.11404,-88.22441,225.1052,-1,-1,10,65.34356,1415908793,0.009841919,-0.02644348,-1.002396,20.31608,-29.40589,6.910645,211.3351,214.4175,25,-0.05863908,-0.06702644,-0.01499413,-0.6860939,0.01137168,0.02472034,0.0004847292,0.00302862,7.525665e-05,-0.002792524,-0.000306589,-0.0002633577,172.17.160.76,10.175.81.193,5,stationary,2,2014-11-13 13:59:32.713,15,2014-11-13 13:57:29.604,0
2014-11-13 14:00:09.266,39472,1315.733,40.11404,-88.22441,225.1052,-1,-1,10,65.34356,1415908793,0.01300049,-0.02360535,-0.9977112,20.69508,-29.85381,6.742981,211.3386,214.4209,25,-0.05863109,-0.06491721,-0.01710602,-0.6860744,0.01128423,0.02476514,0.0004774734,-0.00227708,0.00110876,-0.0006451553,-0.0003533621,0.001231886,172.17.160.76,10.175.81.193,5,stationary,2,2014-11-13 13:59:32.713,15,2014-11-13 13:57:29.604,0
2014-11-13 14:00:09.299,39473,1315.767,40.11404,-88.22441,225.1052,-1,-1,10,65.34356,1415908793,0.01225281,-0.02432251,-0.995697,20.66062,-29.75044,6.441345,211.3438,214.4261,25,-0.05863748,-0.06915963,-0.01606685,-0.6860939,0.01134414,0.02473639,-0.001650351,-0.0001591031,6.626287e-05,0.004086213,-0.0003973611,-0.00104164,172.17.160.76,10.175.81.193,5,stationary,2,2014-11-13 13:59:32.713,15,2014-11-13 13:57:29.604,0
2014-11-13 14:00:09.332,39474,1315.8,40.11404,-88.22441,225.1052,-1,-1,10,65.34356,1415908793,0.01039124,-0.02600098,-1.002335,20.4539,-29.88827,6.843506,211.3469,214.4292,25,-0.05756503,-0.06491775,-0.01711001,-0.6861033,0.01142121,0.02467197,-0.0005753752,0.003022139,-0.0009810633,-0.0008889218,0.0002401447,0.001293669,172.17.160.76,10.175.81.193,5,stationary,2,2014-11-13 13:59:32.713,15,2014-11-13 13:57:29.604,0
2014-11-13 14:00:09.366,39475,1315.833,40.11404,-88.22441,225.1052,-1,-1,10,65.34356,1415908793,0.01191711,-0.0241394,-0.9984894,20.1438,-30.19836,7.011108,211.3387,214.421,25,-0.05969795,-0.06597929,-0.01710761,-0.6861185,0.01142727,0.02471731,-0.0005826002,-0.002283071,5.244537e-05,-0.001032295,-0.001286184,-0.002705322,172.17.160.76,10.175.81.193,5,stationary,2,2014-11-13 13:59:32.713,15,2014-11-13 13:57:29.604,0
2014-11-13 14:00:09.399,39476,1315.867,40.11404,-88.22441,225.1052,-1,-1,10,65.34356,1415908793,0.01213074,-0.0243988,-0.9999847,19.93707,-30.61182,7.145142,211.3136,214.396,25,-0.05756902,-0.06597236,-0.01605407,-0.6861129,0.01133162,0.02471873,0.0004869228,0.003028227,7.628376e-05,-0.0007383168,5.801391e-05,-0.0008732149,172.17.160.76,10.175.81.193,5,stationary,2,2014-11-13 13:59:32.713,15,2014-11-13 13:57:29.604,0
2014-11-13 14:00:09.432,39477,1315.9,40.11404,-88.22441,225.1052,-1,-1,10,65.34356,1415908793,0.01113892,-0.02520752,-1.001862,20.55726,-30.61182,7.212158,211.2943,214.3766,25,-0.05756982,-0.06703496,-0.01605966,-0.6861124,0.01136298,0.02466348,-0.001649654,-0.00228378,5.620236e-05,0.001290254,0.001162441,0.001050401,172.17.160.76,10.175.81.193,5,stationary,2,2014-11-13 13:59:32.713,15,2014-11-13 13:57:29.604,0
2014-11-13 14:00:09.466,39478,1315.933,40.11404,-88.22441,225.1052,-1,-1,10,65.34356,1415908793,0.01126099,-0.02520752,-0.9990997,20.4539,-30.09499,7.245605,211.292,214.3744,25,-0.05757062,-0.06809756,-0.01606525,-0.6861043,0.01134892,0.02466589,0.001548042,-0.002285991,4.409108e-05,-0.001045545,-5.58461e-05,-0.002474279,172.17.160.76,10.175.81.193,5,stationary,2,2014-11-13 13:59:32.713,15,2014-11-13 13:57:29.604,0
2014-11-13 14:00:09.499,39479,1315.967,40.11404,-88.22441,225.1052,-1,-1,10,65.34356,1415908793,0.01312256,-0.02478027,-1.001404,21.03963,-29.99163,7.547302,211.3009,214.3833,25,-0.05756503,-0.06491775,-0.01711001,-0.686096,0.01127904,0.02468005,-0.0005799199,-0.001220668,5.904293e-05,0.0009926984,0.0002177084,0.001310341,172.17.160.76,10.175.81.193,5,stationary,2,2014-11-13 13:59:32.713,15,2014-11-13 13:57:29.604,0
2014-11-13 14:00:09.532,39480,1316,40.11404,-88.22441,225.1052,-1,-1,10,65.34356,1415908793,0.01274109,-0.02464294,-0.9985046,20.48835,-29.92272,7.212158,211.3078,214.3902,25,-0.05863668,-0.06383863,-0.01497735,-0.6861319,0.01131107,0.02471241,-0.0005777314,-0.002291528,-0.001008183,0.001815182,-7.037811e-05,-0.001773095,172.17.160.76,10.175.81.193,5,stationary,2,2014-11-13 13:59:32.713,15,2014-11-13 13:57:29.604,0
2014-11-13 14:00:09.566,39481,1316.033,40.11404,-88.22441,225.1052,-1,-1,10,65.34356,1415908793,0.009765625,-0.0249176,-0.9994202,20.59171,-30.30173,7.111572,211.3053,214.3877,25,-0.05863029,-0.06385461,-0.01710042,-0.6861051,0.01138148,0.02465985,-0.0005837369,-0.001212882,0.001120389,0.001363319,1.440916e-05,0.001126574,172.17.160.76,10.175.81.193,5,stationary,2,2014-11-13 13:59:32.713,15,2014-11-13 13:57:29.604,0
2014-11-13 14:00:09.599,39482,1316.067,40.11404,-88.22441,225.1052,-1,-1,10,65.34356,1415908793,0.01141357,-0.02484131,-0.9982147,20.31606,-30.02608,6.776367,211.2992,214.3816,25,-0.05863109,-0.06491721,-0.01710602,-0.6861081,0.01138447,0.02471365,-0.0005799581,-0.0001587817,6.43197e-05,0.0005516297,-0.001259325,0.001506682,172.17.160.76,10.175.81.193,5,stationary,2,2014-11-13 13:59:32.713,15,2014-11-13 13:57:29.604,0
2014-11-13 14:00:09.634,39483,1316.1,40.11404,-88.22441,225.1052,-1,-1,10,65.34356,1415908793,0.01452637,-0.02459717,-0.9984741,20.41943,-29.85381,6.74292,211.2987,214.3811,25,-0.05863349,-0.06384663,-0.01603889,-0.6861115,0.01137201,0.02471884,0.0004851276,-0.001222274,5.46714e-05,-0.0004887701,0.0004395915,0.001644024,172.17.160.76,10.175.81.193,5,stationary,2,2014-11-13 13:59:32.713,15,2014-11-13 13:57:29.604,0
2014-11-13 14:00:09.666,39484,1316.133,40.11404,-88.22441,225.1052,-1,-1,10,65.34356,1415908793,0.009689331,-0.0249176,-0.9981995,20.55725,-29.64706,6.809937,211.3064,214.3888,25,-0.05863668,-0.06383863,-0.01497735,-0.68611,0.01143181,0.02470475,0.0004853951,-0.001212036,0.001117617,0.003098298,0.0001050663,0.00115541,172.17.160.76,10.175.81.193,5,stationary,2,2014-11-13 13:59:32.713,15,2014-11-13 13:57:29.604,0
2014-11-13 14:00:09.699,39485,1316.167,40.11404,-88.22441,225.1052,-1,-1,10,65.34356,1415908793,0.01150513,-0.02484131,-1.000092,20.38497,-29.75043,6.709351,211.3055,214.3878,25,-0.05757302,-0.06702697,-0.01499812,-0.6861065,0.01141473,0.0247293,-0.0005754678,0.001967564,7.671432e-05,-0.001447006,-0.0005112549,-0.0003098459,172.17.160.76,10.175.81.193,5,stationary,2,2014-11-13 13:59:32.713,15,2014-11-13 13:57:29.604,0
2014-11-13 14:00:09.732,39486,1316.2,40.11404,-88.22441,225.1052,-1,-1,10,65.34356,1415908793,0.009597778,-0.02433777,-1.000992,20.00597,-30.19836,6.94397,211.2869,214.3693,25,-0.05757222,-0.06596437,-0.01499253,-0.6861038,0.0113519,0.02471519,-0.001645089,-0.002282855,5.82446e-05,-0.002131882,0.0008784445,0.002666682,172.17.160.76,10.175.81.193,5,stationary,2,2014-11-13 13:59:32.713,15,2014-11-13 13:57:29.604,0
2014-11-13 14:00:09.766,39487,1316.233,40.11404,-88.22441,225.1052,-1,-1,10,65.34356,1415908793,0.01382446,-0.02455139,-1.000626,19.83369,-29.95717,7.111572,211.2773,214.3597,25,-0.05757142,-0.06490177,-0.01498694,-0.6861078,0.01135762,0.02470353,-0.001646285,-0.003345749,5.255304e-05,-0.001756134,0.0003632515,-0.001361415,172.17.160.76,10.175.81.193,5,stationary,2,2014-11-13 13:59:32.713,15,2014-11-13 13:57:29.604,0
2014-11-13 14:00:09.799,39488,1316.267,40.11404,-88.22441,225.1052,-1,-1,10,65.34356,1415908793,0.01123047,-0.02510071,-1.003403,20.2816,-29.85381,7.279114,211.2714,214.3538,25,-0.05756582,-0.06172195,-0.0160317,-0.6861116,0.01136956,0.02468031,0.0004885455,-0.003355108,-0.001017107,-0.001737552,-0.0001177329,0.001507675,172.17.160.76,10.175.81.193,5,stationary,2,2014-11-13 13:59:32.713,15,2014-11-13 13:57:29.604,0
2014-11-13 14:00:09.832,39489,1316.3,40.11404,-88.22441,225.1052,-1,-1,10,65.34356,1415908793,0.0138855,-0.02441406,-0.997467,20.5917,-29.47479,6.776367,211.2826,214.365,25,-0.05756582,-0.06172195,-0.0160317,-0.6861087,0.01136652,0.02470201,0.0004881648,-0.002274234,0.001113092,-0.0001323344,-0.0004012104,-0.003772367,172.17.160.76,10.175.81.193,5,stationary,2,2014-11-13 13:59:32.713,15,2014-11-13 13:57:29.604,0
2014-11-13 14:00:09.866,39490,1316.333,40.11404,-88.22441,225.1052,-1,-1,10,65.34356,1415908793,0.01219177,-0.02453613,-0.9997559,20.5917,-29.68153,6.776367,211.2863,214.3687,25,-0.05756982,-0.06277657,-0.01497575,-0.6860989,0.01146795,0.02471275,0.0004878223,-0.002274117,0.001112982,0.002421306,0.0002961669,0.002161879,172.17.160.76,10.175.81.193,5,stationary,2,2014-11-13 13:59:32.713,15,2014-11-13 13:57:29.604,0
2014-11-13 14:00:09.899,39491,1316.367,40.11404,-88.22441,225.1052,-1,-1,10,65.34356,1415908793,0.01113892,-0.02409363,-0.9976501,20.2127,-29.7849,6.474731,211.2832,214.3656,25,-0.05756982,-0.06703496,-0.01605966,-0.6860771,0.01152852,0.0247147,-0.002711589,-0.00333524,0.001119235,0.0006670284,0.000176046,-0.0001276843,172.17.160.76,10.175.81.193,5,stationary,2,2014-11-13 13:59:32.713,15,2014-11-13 13:57:29.604,0
2014-11-13 14:00:09.932,39492,1316.4,40.11404,-88.22441,225.1052,-1,-1,10,65.34356,1415908793,0.01255798,-0.0244751,-1.000549,19.62695,-29.75043,6.575317,211.2656,214.348,25,-0.05756822,-0.06490976,-0.01604847,-0.6860734,0.01145938,0.02470491,-0.001639446,0.0009059346,7.598671e-05,-0.0003167196,0.0006087695,0.001979065,172.17.160.76,10.175.81.193,5,stationary,2,2014-11-13 13:59:32.713,15,2014-11-13 13:57:29.604,0
2014-11-13 14:00:09.966,39493,1316.433,40.11404,-88.22441,225.1052,-1,-1,10,65.34356,1415908793,0.01242065,-0.02410889,-1.002548,19.9026,-29.61261,6.441223,211.2606,214.3429,25,-0.0554345,-0.06278562,-0.01604528,-0.6860712,0.01147275,0.02466484,-0.001634754,0.0009081272,7.731337e-05,-0.0003911282,0.0005381968,0.00262077,172.17.160.76,10.175.81.193,5,stationary,2,2014-11-13 13:59:32.713,15,2014-11-13 13:57:29.604,0
2014-11-13 14:00:09.999,39494,1316.467,40.11404,-88.22441,225.1052,-1,-1,10,65.34356,1415908793,0.01187134,-0.0247345,-0.9977112,20.45388,-29.19914,6.508301,211.2687,214.3511,25,-0.05863349,-0.06810502,-0.01712279,-0.6860813,0.01153819,0.02467113,-0.0005657959,0.0008994901,-0.0009882875,0.0008862336,0.0005597388,-0.002919079,172.17.160.76,10.175.81.193,5,stationary,2,2014-11-13 13:59:32.713,15,2014-11-13 13:57:29.604,0
2014-11-13 14:00:10.032,39495,1316.5,40.11404,-88.22441,225.1052,-1,-1,10,65.34356,1415908793,0.01019287,-0.02574158,-1.000946,20.76397,-29.50923,6.474854,211.2767,214.3591,25,-0.05756902,-0.06597236,-0.01605407,-0.6860853,0.01151377,0.02466835,0.001564261,-0.001227112,-0.001007595,-0.001225589,0.0001602346,0.004603854,172.17.160.76,10.175.81.193,5,stationary,2,2014-11-13 13:59:32.713,15,2014-11-13 13:57:29.604,0
2014-11-13 14:00:10.066,39496,1316.533,40.11404,-88.22441,225.1052,-1,-1,10,65.34356,1415908793,0.01286316,-0.02452087,-0.996994,21.34971,-29.54369,6.642395,211.3044,214.3868,25,-0.05757222,-0.06596437,-0.01499253,-0.6860804,0.01142395,0.02470083,-0.0005699439,0.0009060825,7.299925e-05,-0.001563037,0.0004826224,0.0002705864,172.17.160.76,10.175.81.193,5,stationary,2,2014-11-13 13:59:32.713,15,2014-11-13 13:57:29.604,0
2014-11-13 14:00:10.099,39497,1316.567,40.11404,-88.22441,225.1052,-1,-1,10,65.34356,1415908793,0.01203918,-0.02351379,-0.9959869,20.86733,-30.37062,6.441345,211.3141,214.3965,25,-0.05970115,-0.06597129,-0.01604608,-0.6860743,0.01145233,0.02469443,0.0004918969,-0.0001491553,0.001124897,0.001414573,0.0001710428,0.002635532,172.17.160.76,10.175.81.193,5,stationary,2,2014-11-13 13:59:32.713,15,2014-11-13 13:57:29.604,0
2014-11-13 14:00:10.132,39498,1316.6,40.11404,-88.22441,225.1052,-1,-1,10,65.34356,1415908793,0.01177979,-0.02597046,-0.9983215,20.86733,-30.02607,6.843567,211.3216,214.404,25,-0.05970195,-0.06703389,-0.01605167,-0.6860738,0.01153384,0.02465869,0.0005001168,-0.0001544901,6.463246e-05,0.000509107,0.001142401,0.003642558,172.17.160.76,10.175.81.193,5,stationary,2,2014-11-13 13:59:32.713,15,2014-11-13 13:57:29.604,0
2014-11-13 14:00:10.166,39499,1316.633,40.11404,-88.22441,225.1052,-1,-1,10,65.34356,1415908793,0.01312256,-0.02467346,-0.9968567,20.83288,-30.06052,7.011169,211.3246,214.4069,25,-0.05650695,-0.0670275,-0.01500212,-0.6860813,0.01151252,0.02467629,-0.0005686036,-0.003342336,5.175804e-05,0.0002710262,-0.001296671,0.001307774,172.17.160.76,10.175.81.193,5,stationary,2,2014-11-13 13:59:32.713,15,2014-11-13 13:57:29.604,0
2014-11-13 14:00:10.199,39500,1316.667,40.11404,-88.22441,225.1052,-1,-1,10,65.34356,1415908793,0.01298523,-0.0234375,-1.001007,21.07407,-29.47478,7.782104,211.3449,214.4273,25,-0.05863668,-0.06809703,-0.01606126,-0.6860783,0.0114912,0.02473184,0.0004980178,0.0019775,0.001137139,0.001635131,5.585826e-05,0.002771491,172.17.160.76,10.175.81.193,5,stationary,2,2014-11-13 13:59:32.713,15,2014-11-13 13:57:29.604,0
2014-11-13 14:00:10.232,39501,1316.7,40.11404,-88.22441,225.1052,-1,-1,10,65.34356,1415908793,0.007949829,-0.02639771,-1.000381,20.66061,-29.88824,7.312805,211.3547,214.4371,25,-0.05863908,-0.06702644,-0.01499413,-0.6860904,0.01166229,0.02467802,-0.0005679999,-0.001217519,6.265037e-05,0.001204685,0.0003530077,0.001199185,172.17.160.76,10.175.81.193,5,stationary,2,2014-11-13 13:59:32.713,15,2014-11-13 13:57:29.604,0
2014-11-13 14:00:10.265,39502,1316.733,40.11404,-88.22441,225.1052,-1,-1,10,65.34356,1415908793,0.01081848,-0.02415466,-0.997879,20.35051,-29.78487,7.078186,211.3532,214.4356,25,-0.05863189,-0.06597982,-0.01711161,-0.6860801,0.01153587,0.02473638,0.0004988072,-0.0001564399,6.417069e-05,-0.001461287,-0.0004278812,-0.0001283052,172.17.160.76,10.175.81.193,5,stationary,2,2014-11-13 13:59:32.713,15,2014-11-13 13:57:29.604,0
2014-11-13 14:00:10.299,39503,1316.767,40.11404,-88.22441,225.1052,-1,-1,10,65.34356,1415908793,0.01412964,-0.0239563,-1.001694,20.35051,-29.78487,6.541931,211.3454,214.4277,25,-0.05863748,-0.06490123,-0.01498294,-0.6860732,0.01152593,0.02473428,-0.0005641831,0.000916985,0.001136683,-0.0007036632,0.0005770899,0.001748693,172.17.160.76,10.175.81.193,5,stationary,2,2014-11-13 13:59:32.713,15,2014-11-13 13:57:29.604,0
2014-11-13 14:00:10.332,39504,1316.8,40.11404,-88.22441,225.1052,-1,-1,10,65.34356,1415908793,0.01222229,-0.02462769,-0.9998474,20.9018,-29.64705,6.608887,211.3584,214.4408,25,-0.05970115,-0.06597129,-0.01604608,-0.6860727,0.0116233,0.0246977,0.0005028434,-0.001216822,5.982599e-05,0.003364637,-0.0001918912,0.0007719072,172.17.160.76,10.175.81.193,5,stationary,2,2014-11-13 13:59:32.713,15,2014-11-13 13:57:29.604,0
2014-11-13 14:00:10.365,39505,1316.833,40.11404,-88.22441,225.1052,-1,-1,10,65.34356,1415908793,0.009719849,-0.02616882,-0.9984741,20.9018,-29.71596,6.675964,211.3652,214.4476,25,-0.05757302,-0.06702697,-0.01499812,-0.6860822,0.01169161,0.02466481,-0.0005613019,-0.002286984,-0.001003431,-0.001067672,-0.0003621065,0.001733227,172.17.160.76,10.175.81.193,5,stationary,2,2014-11-13 13:59:32.713,15,2014-11-13 13:57:29.604,0
2014-11-13 14:00:10.399,39506,1316.867,40.11404,-88.22441,225.1052,-1,-1,10,65.34356,1415908793,0.01223755,-0.02474976,-0.9988861,21.10853,-29.71596,6.407776,211.3848,214.4672,25,-0.05970514,-0.06702591,-0.01499014,-0.6860943,0.01164431,0.02471574,0.0005086334,0.003024754,-0.000979548,-0.002927725,-0.001272497,0.001274757,172.17.160.76,10.175.81.193,5,stationary,2,2014-11-13 13:59:32.713,15,2014-11-13 13:57:29.604,0
2014-11-13 14:00:10.432,39507,1316.9,40.11404,-88.22441,225.1052,-1,-1,10,65.34356,1415908793,0.01538086,-0.0239563,-0.9985352,20.83289,-29.64705,6.407776,211.391,214.4734,25,-0.05863428,-0.06490923,-0.01604448,-0.6860919,0.01163956,0.02471346,-0.001633243,-0.001209008,0.001129082,-0.001015623,0.0003731726,3.890718e-05,172.17.160.76,10.175.81.193,5,stationary,2,2014-11-13 13:59:32.713,15,2014-11-13 13:57:29.604,0
2014-11-13 14:00:10.466,39508,1316.933,40.11404,-88.22441,225.1052,-1,-1,10,65.34356,1415908793,0.008728027,-0.02574158,-0.9975586,20.83289,-29.92268,6.809998,211.4009,214.4832,25,-0.06076881,-0.06809597,-0.01605327,-0.6860778,0.01183223,0.02469609,0.0005095392,0.001972713,7.767524e-05,0.003552512,0.0007372793,0.001089932,172.17.160.76,10.175.81.193,5,stationary,2,2014-11-13 13:59:32.713,15,2014-11-13 13:57:29.604,0
2014-11-13 14:00:10.499,39509,1316.967,40.11404,-88.22441,225.1052,-1,-1,10,65.34356,1415908793,0.01019287,-0.02607727,-1.002258,20.79843,-29.88824,7.245728,211.4087,214.4911,25,-0.05863828,-0.06596383,-0.01498854,-0.6860846,0.01178024,0.02471371,0.001575118,0.001971337,7.354147e-05,-0.00123255,-0.00064891,0.000327171,172.17.160.76,10.175.81.193,5,stationary,2,2014-11-13 13:59:32.713,15,2014-11-13 13:57:29.604,0
2014-11-13 14:00:10.532,39510,1317,40.11404,-88.22441,225.1052,-1,-1,10,65.34356,1415908793,0.01461792,-0.02392578,-0.9983368,20.66061,-30.09496,7.178711,211.4079,214.4903,25,-0.05863588,-0.06703443,-0.01605567,-0.6860755,0.01177212,0.0247262,-0.0005621493,-0.0001454701,0.001131758,0.002803896,0.0004927282,0.001425591,172.17.160.76,10.175.81.193,5,stationary,2,2014-11-13 13:59:32.713,15,2014-11-13 13:57:29.604,0
2014-11-13 14:00:10.566,39511,1317.033,40.11404,-88.22441,225.1052,-1,-1,10,65.34356,1415908793,0.01283264,-0.02412415,-1.002625,20.5917,-29.88824,6.374268,211.4094,214.4918,25,-0.05756822,-0.06490976,-0.01604847,-0.6860767,0.01187029,0.02470125,-0.0005594976,-0.0001532794,7.01091e-05,0.0006000403,0.0005898532,0.002264281,172.17.160.76,10.175.81.193,5,stationary,2,2014-11-13 13:59:32.713,15,2014-11-13 13:57:29.604,0
2014-11-13 14:00:10.599,39512,1317.067,40.11404,-88.22441,225.1052,-1,-1,10,65.34356,1415908793,0.008453369,-0.02528381,-0.994873,20.35051,-29.64705,6.005493,211.4072,214.4896,25,-0.05863189,-0.06597982,-0.01711161,-0.6860811,0.0118987,0.02468925,-0.0005566198,-0.0001614535,-0.0009914947,0.0009378495,0.0005626006,-0.003000043,172.17.160.76,10.175.81.193,5,stationary,2,2014-11-13 13:59:32.713,15,2014-11-13 13:57:29.604,0
2014-11-13 14:00:10.632,39513,1317.1,40.11404,-88.22441,225.1052,-1,-1,10,65.34356,1415908793,0.01004028,-0.02433777,-0.9965057,20.45388,-29.75041,6.039062,211.4093,214.4917,25,-0.05863668,-0.06809703,-0.01606126,-0.6860858,0.01175317,0.02478305,0.0005119243,0.0009097466,7.288685e-05,-0.002182028,-0.0009000314,-0.001703645,172.17.160.76,10.175.81.193,5,stationary,2,2014-11-13 13:59:32.713,15,2014-11-13 13:57:29.604,0
2014-11-13 14:00:10.666,39514,1317.133,40.11404,-88.22441,225.1052,-1,-1,10,65.34356,1415908793,0.01248169,-0.0249939,-1.002365,20.69507,-29.64705,6.273682,211.4134,214.4958,25,-0.05863428,-0.06490923,-0.01604448,-0.6861035,0.01169075,0.02477383,-0.0005521891,-0.000160944,-0.0009903567,0.001572988,0.0002809381,0.004065137,172.17.160.76,10.175.81.193,5,stationary,2,2014-11-13 13:59:32.713,15,2014-11-13 13:57:29.604,0
2014-11-13 14:00:10.699,39515,1317.167,40.11404,-88.22441,225.1052,-1,-1,10,65.34356,1415908793,0.01142883,-0.02412415,-0.9981537,20.66062,-29.75041,6.441345,211.4189,214.5013,25,-0.05863189,-0.06597982,-0.01711161,-0.6861018,0.01173508,0.02474505,-0.003753929,-0.0001515895,8.30631e-05,0.0002927062,-0.0003276702,-0.001885597,172.17.160.76,10.175.81.193,5,stationary,2,2014-11-13 13:59:32.713,15,2014-11-13 13:57:29.604,0
2014-11-13 14:00:10.732,39516,1317.2,40.11404,-88.22441,225.1052,-1,-1,10,65.34356,1415908793,0.01171875,-0.02529907,-0.9997253,20.90181,-29.64704,6.742981,211.4257,214.508,25,-0.05756982,-0.06703496,-0.01605966,-0.6861099,0.01171778,0.02473113,-0.000555327,0.0009089527,7.657487e-05,-0.0002850986,0.0006044623,0.001471883,172.17.160.76,10.175.81.193,5,stationary,2,2014-11-13 13:59:32.713,15,2014-11-13 13:57:29.604,0
2014-11-13 14:00:10.766,39517,1317.233,40.11404,-88.22441,225.1052,-1,-1,10,65.34356,1415908793,0.0148468,-0.02507019,-1.000275,20.66062,-29.40585,6.843567,211.4379,214.5203,25,-0.05756982,-0.06703496,-0.01605966,-0.6861122,0.01167893,0.02474578,0.0005128356,-0.0001627545,-0.0009946398,4.36574e-05,-0.0005558125,-9.96802e-05,172.17.160.76,10.175.81.193,5,stationary,2,2014-11-13 13:59:32.713,15,2014-11-13 13:57:29.604,0
2014-11-13 14:00:10.799,39518,1317.267,40.11404,-88.22441,225.1052,-1,-1,10,65.34356,1415908793,0.009994507,-0.02436829,-0.9970703,20.31607,-29.40585,7.178711,211.4398,214.5222,25,-0.05863668,-0.06809703,-0.01606126,-0.6861267,0.01176729,0.02475376,0.000513363,0.001980668,0.001140984,0.001084488,0.0005507913,0.0003873683,172.17.160.76,10.175.81.193,5,stationary,2,2014-11-13 13:59:32.713,15,2014-11-13 13:57:29.604,0
2014-11-13 14:00:10.833,39519,1317.3,40.11404,-88.22441,225.1052,-1,-1,10,65.34356,1415908793,0.01199341,-0.02511597,-1.000687,20.10934,-29.68149,6.9776,211.4349,214.5173,25,-0.05756742,-0.06384715,-0.01604288,-0.6861243,0.01168948,0.02475704,0.0005147206,-0.000153018,6.820366e-05,-0.001691121,0.0003862233,0.002554948,172.17.160.76,10.175.81.193,5,stationary,2,2014-11-13 13:59:32.713,15,2014-11-13 13:57:29.604,0
2014-11-13 14:00:10.866,39520,1317.333,40.11404,-88.22441,225.1052,-1,-1,10,65.34356,1415908793,0.01104736,-0.02398682,-0.9984131,20.90181,-29.78486,7.011169,211.4395,214.5218,25,-0.05756982,-0.06703496,-0.01605966,-0.6861211,0.01168641,0.02475297,-0.001614693,-0.0001605272,-0.0009854696,0.001409477,0.0003363756,-0.0004203798,172.17.160.76,10.175.81.193,5,stationary,2,2014-11-13 13:59:32.713,15,2014-11-13 13:57:29.604,0
2014-11-13 14:00:10.899,39521,1317.367,40.11404,-88.22441,225.1052,-1,-1,10,65.34356,1415908793,0.01211548,-0.02415466,-0.9966431,20.79845,-30.16386,7.111694,211.4438,214.5261,25,-0.05863908,-0.06702644,-0.01499413,-0.6861139,0.0117061,0.02475373,-0.001619971,-0.002278116,6.474669e-05,0.003831206,-0.0006546815,-0.002694188,172.17.160.76,10.175.81.193,5,stationary,2,2014-11-13 13:59:32.713,15,2014-11-13 13:57:29.604,0
2014-11-13 14:00:10.932,39522,1317.4,40.11404,-88.22441,225.1052,-1,-1,10,65.34356,1415908793,0.008560181,-0.02488708,-0.9991302,20.4539,-29.95714,7.379822,211.441,214.5233,25,-0.05863428,-0.06490923,-0.01604448,-0.6861224,0.01167653,0.02473091,0.0005141267,0.0009082495,7.345538e-05,0.0004427873,0.0005737251,0.002982991,172.17.160.76,10.175.81.193,5,stationary,2,2014-11-13 13:59:32.713,15,2014-11-13 13:57:29.604,0
2014-11-13 14:00:10.966,39523,1317.433,40.11404,-88.22441,225.1052,-1,-1,10,65.34356,1415908793,0.0151825,-0.02522278,-0.9961243,19.69587,-29.61259,7.379822,211.4277,214.51,25,-0.05863988,-0.06808904,-0.01499972,-0.6861066,0.01161608,0.02474019,0.0005191503,0.0009096952,7.486477e-05,0.0006252803,-0.0003630402,-0.00148736,172.17.160.76,10.175.81.193,5,stationary,2,2014-11-13 13:59:32.713,15,2014-11-13 13:57:29.604,0
2014-11-13 14:00:10.999,39524,1317.467,40.11404,-88.22441,225.1052,-1,-1,10,65.34356,1415908793,0.01210022,-0.02459717,-1.000671,19.86815,-29.57813,7.011047,211.4113,214.4937,25,-0.05863349,-0.06810502,-0.01712279,-0.6861162,0.01162466,0.02476204,-0.0005431591,0.001964636,-0.0009771849,0.003561659,-0.0004632649,0.003501624,172.17.160.76,10.175.81.193,5,stationary,2,2014-11-13 13:59:32.713,15,2014-11-13 13:57:29.604,0
2014-11-13 14:00:11.032,39525,1317.5,40.11404,-88.22441,225.1052,-1,-1,10,65.34356,1415908793,0.008895874,-0.02482605,-0.9989624,20.28162,-29.64704,6.74292,211.4095,214.4919,25,-0.05756902,-0.06597236,-0.01605407,-0.6861262,0.01164431,0.02473445,0.000517633,-0.000153233,6.906589e-05,0.0004597354,0.0001347644,-0.001045041,172.17.160.76,10.175.81.193,5,stationary,2,2014-11-13 13:59:32.713,15,2014-11-13 13:57:29.604,0
2014-11-13 14:00:11.066,39526,1317.533,40.11404,-88.22441,225.1052,-1,-1,10,65.34356,1415908793,0.01148987,-0.02403259,-0.999588,20.48835,-29.85378,7.011047,211.4071,214.4895,25,-0.05863269,-0.06704242,-0.0171172,-0.6861212,0.01154513,0.02478278,0.0005206097,-0.0001622486,-0.000992567,-0.002172429,-0.001815823,-0.0006025831,172.17.160.76,10.175.81.193,5,stationary,2,2014-11-13 13:59:32.713,15,2014-11-13 13:57:29.604,0
2014-11-13 14:00:11.099,39527,1317.567,40.11404,-88.22441,225.1052,-1,-1,10,65.34356,1415908793,0.01448059,-0.02407837,-0.9997406,20.62617,-29.71596,7.145142,211.4091,214.4915,25,-0.05757142,-0.06490177,-0.01498694,-0.6861452,0.0115347,0.02476696,-0.0005451847,-0.001214747,6.857509e-05,0.002003643,0.0005639895,-0.0004800005,172.17.160.76,10.175.81.193,5,stationary,2,2014-11-13 13:59:32.713,15,2014-11-13 13:57:29.604,0
2014-11-13 14:00:11.132,39528,1317.6,40.11404,-88.22441,225.1052,-1,-1,10,65.34356,1415908793,0.01037598,-0.02505493,-0.9988708,20.35053,-29.64705,7.145142,211.4083,214.4907,25,-0.05756822,-0.06490976,-0.01604847,-0.6861362,0.01169992,0.02472035,-0.001610996,-0.0001512375,7.804397e-05,0.003562711,0.0008683488,-0.002388115,172.17.160.76,10.175.81.193,5,stationary,2,2014-11-13 13:59:32.713,15,2014-11-13 13:57:29.604,0
2014-11-13 14:00:11.166,39529,1317.633,40.11404,-88.22441,225.1052,-1,-1,10,65.34356,1415908793,0.007522583,-0.02532959,-0.9983521,20.69508,-29.78487,6.876953,211.4086,214.4909,25,-0.05970115,-0.06597129,-0.01604608,-0.6861269,0.01165931,0.02473533,0.000518318,0.0009175408,0.001137061,-0.002225547,-0.0006273014,-0.0004654035,172.17.160.76,10.175.81.193,5,stationary,2,2014-11-13 13:59:32.713,15,2014-11-13 13:57:29.604,0
2014-11-13 14:00:11.199,39530,1317.667,40.11404,-88.22441,225.1052,-1,-1,10,65.34356,1415908793,0.01486206,-0.0242157,-1.000778,20.59171,-30.02605,6.709412,211.4108,214.4932,25,-0.05756822,-0.06490976,-0.01604847,-0.6861197,0.01145786,0.02474955,-0.0005479385,0.0009167608,0.001141001,-0.003031247,0.0004855543,0.002191602,172.17.160.76,10.175.81.193,5,stationary,2,2014-11-13 13:59:32.713,15,2014-11-13 13:57:29.604,0
2014-11-13 14:00:11.232,39531,1317.7,40.11404,-88.22441,225.1052,-1,-1,10,65.34356,1415908793,0.01144409,-0.02394104,-0.9972687,20.72953,-30.09496,6.575317,211.411,214.4934,25,-0.05756902,-0.06597236,-0.01605407,-0.6861186,0.01148862,0.02472689,-0.001611948,-0.0001534737,7.779823e-05,0.002110721,0.0007070396,0.0005286012,172.17.160.76,10.175.81.193,5,stationary,2,2014-11-13 13:59:32.713,15,2014-11-13 13:57:29.604,0
2014-11-13 14:00:11.266,39532,1317.733,40.11404,-88.22441,225.1052,-1,-1,10,65.34356,1415908793,0.01042175,-0.02603149,-1.001434,20.28161,-29.85378,6.541809,211.4064,214.4888,25,-0.05863588,-0.06703443,-0.01605567,-0.6861295,0.0115908,0.02467166,0.0005275528,-0.0001603121,-0.0009904702,-0.0001429232,0.0007281217,0.002359841,172.17.160.76,10.175.81.193,5,stationary,2,2014-11-13 13:59:32.713,15,2014-11-13 13:57:29.604,0
2014-11-13 14:00:11.299,39533,1317.767,40.11404,-88.22441,225.1052,-1,-1,10,65.34356,1415908793,0.01010132,-0.02513123,-0.998764,20.17825,-29.6815,6.575378,211.4003,214.4827,25,-0.05969715,-0.06491669,-0.01710202,-0.686124,0.01147817,0.02471264,-0.001608759,-0.001214849,7.334904e-05,-0.002914232,-0.0004821307,-0.0005237831,172.17.160.76,10.175.81.193,5,stationary,2,2014-11-13 13:59:32.713,15,2014-11-13 13:57:29.604,0
2014-11-13 14:00:11.332,39534,1317.8,40.11404,-88.22441,225.1052,-1,-1,10,65.34356,1415908793,0.01422119,-0.02359009,-0.9989166,20.14379,-29.71596,6.474854,211.3961,214.4784,25,-0.05863428,-0.06490923,-0.01604448,-0.686132,0.01143303,0.0247218,-0.001604158,0.0009018271,-0.0009770766,-0.001327971,-0.0004119405,0.0008650573,172.17.160.76,10.175.81.193,5,stationary,2,2014-11-13 13:59:32.713,15,2014-11-13 13:57:29.604,0
2014-11-13 14:00:11.366,39535,1317.833,40.11404,-88.22441,225.1052,-1,-1,10,65.34356,1415908793,0.01086426,-0.02597046,-0.9983673,20.2127,-29.85378,6.407776,211.387,214.4694,25,-0.05863349,-0.06384663,-0.01603889,-0.6861476,0.01157309,0.02465936,-0.00267648,-0.002277364,7.152995e-05,0.002651875,0.001066771,0.0007124003,172.17.160.76,10.175.81.193,5,stationary,2,2014-11-13 13:59:32.713,15,2014-11-13 13:57:29.604,0
2014-11-13 14:00:11.399,39536,1317.867,40.11404,-88.22441,225.1052,-1,-1,10,65.34356,1415908793,0.009933472,-0.02581787,-0.9989777,20.04042,-30.3017,6.709473,211.3651,214.4475,25,-0.05969795,-0.06597929,-0.01710761,-0.6861501,0.0115387,0.02467345,0.0005204395,-0.003342156,5.382646e-05,-0.001189471,-0.0002161427,-0.0007066171,172.17.160.76,10.175.81.193,5,stationary,2,2014-11-13 13:59:32.713,15,2014-11-13 13:57:29.604,0
2014-11-13 14:00:11.432,39537,1317.9,40.11404,-88.22441,225.1052,-1,-1,10,65.34356,1415908793,0.01307678,-0.02412415,-1.000641,20.2127,-30.12943,6.877075,211.3583,214.4407,25,-0.05863428,-0.06490923,-0.01604448,-0.6861622,0.01154369,0.02472186,0.001595135,-0.001224227,-0.0009994915,0.002955941,-0.0007475773,9.292802e-06,172.17.160.76,10.175.81.193,5,stationary,2,2014-11-13 13:59:32.713,15,2014-11-13 13:57:29.604,0
2014-11-13 14:00:11.466,39538,1317.933,40.11404,-88.22441,225.1052,-1,-1,10,65.34356,1415908793,0.01437378,-0.02503967,-0.9994812,20.35051,-30.26724,6.877136,211.3477,214.4301,25,-0.05650216,-0.06491029,-0.01605247,-0.6861556,0.01158747,0.02467981,-0.0005437989,-0.001207273,0.001131482,0.002774843,0.00127032,0.002252867,172.17.160.76,10.175.81.193,5,stationary,2,2014-11-13 13:59:32.713,15,2014-11-13 13:57:29.604,0
2014-11-13 14:00:11.499,39539,1317.967,40.11404,-88.22441,225.1052,-1,-1,10,65.34356,1415908793,0.008377075,-0.02534485,-0.996582,20.48833,-30.12942,7.078247,211.3438,214.4262,25,-0.05969875,-0.06704188,-0.01711321,-0.6861559,0.01165371,0.02468907,0.001592033,-0.0001537089,6.747618e-05,0.002723881,-0.0003531105,0.0001461561,172.17.160.76,10.175.81.193,5,stationary,2,2014-11-13 13:59:32.713,15,2014-11-13 13:57:29.604,0
2014-11-13 14:00:11.532,39540,1318,40.11404,-88.22441,225.1052,-1,-1,10,65.34356,1415908793,0.01139832,-0.02464294,-0.998642,20.17823,-30.23279,7.312866,211.3358,214.4182,25,-0.05756503,-0.06491775,-0.01711001,-0.6861604,0.0114993,0.02470332,0.0005263485,0.000908254,7.695273e-05,-0.003118465,-0.0006440452,0.003046761,172.17.160.76,10.175.81.193,5,stationary,2,2014-11-13 13:59:32.713,15,2014-11-13 13:57:29.604,0
2014-11-13 14:00:11.566,39541,1318.033,40.11404,-88.22441,225.1052,-1,-1,10,65.34356,1415908793,0.01538086,-0.02420044,-0.9998627,20.17823,-30.64625,7.782166,211.3149,214.3973,25,-0.05863588,-0.06703443,-0.01605567,-0.6861683,0.01147448,0.02474136,0.001600517,0.003026303,-0.0009764874,0.001926504,0.0002789941,0.002908777,172.17.160.76,10.175.81.193,5,stationary,2,2014-11-13 13:59:32.713,15,2014-11-13 13:57:29.604,0
2014-11-13 14:00:11.599,39542,1318.067,40.11404,-88.22441,225.1052,-1,-1,10,65.34356,1415908793,0.01083374,-0.02508545,-0.9940338,20.38497,-29.95714,7.581055,211.303,214.3853,25,-0.05970035,-0.06916708,-0.01712439,-0.6861637,0.01161399,0.02470852,0.0005306432,0.003034931,8.891503e-05,0.001588664,0.0007802247,-0.004202617,172.17.160.76,10.175.81.193,5,stationary,2,2014-11-13 13:59:32.713,15,2014-11-13 13:57:29.604,0
2014-11-13 14:00:11.632,39543,1318.1,40.11404,-88.22441,225.1052,-1,-1,10,65.34356,1415908793,0.01029968,-0.02668762,-1.003418,20.41942,-29.64704,7.748657,211.3043,214.3867,25,-0.05863109,-0.06491721,-0.01710602,-0.6861646,0.01147957,0.0247095,0.00159644,0.003033576,8.483436e-05,-0.003785383,-0.000286907,0.005274619,172.17.160.76,10.175.81.193,5,stationary,2,2014-11-13 13:59:32.713,15,2014-11-13 13:57:29.604,0
2014-11-13 14:00:11.666,39544,1318.133,40.11404,-88.22441,225.1052,-1,-1,10,65.34356,1415908793,0.01216125,-0.02401733,-0.9963531,20.41942,-29.23358,7.480469,211.309,214.3913,25,-0.05970594,-0.06808851,-0.01499573,-0.6861762,0.01148222,0.02475734,-0.001604157,-0.000153298,7.995381e-05,-0.0002632389,-0.001291942,-0.003775057,172.17.160.76,10.175.81.193,5,stationary,2,2014-11-13 13:59:32.713,15,2014-11-13 13:57:29.604,0
2014-11-13 14:00:11.699,39545,1318.167,40.11404,-88.22441,225.1052,-1,-1,10,65.34356,1415908793,0.01309204,-0.02433777,-1.000778,20.55724,-29.37141,7.48053,211.319,214.4013,25,-0.05649896,-0.06491828,-0.01711401,-0.6861799,0.01150003,0.02467992,-0.001599054,0.003026358,-0.0009649083,0.0006649781,0.0006600789,0.003276212,172.17.160.76,10.175.81.193,5,stationary,2,2014-11-13 13:59:32.713,15,2014-11-13 13:57:29.604,0
2014-11-13 14:00:11.732,39546,1318.2,40.11404,-88.22441,225.1052,-1,-1,10,65.34356,1415908793,0.01078796,-0.02561951,-0.9998627,20.6606,-29.40587,7.380005,211.3259,214.4082,25,-0.05863349,-0.06384663,-0.01603889,-0.6861933,0.01153562,0.02466781,0.0005347643,0.000902092,-0.0009832293,-0.002056151,-0.0006642826,0.004466287,172.17.160.76,10.175.81.193,5,stationary,2,2014-11-13 13:59:32.713,15,2014-11-13 13:57:29.604,0
2014-11-13 14:00:11.766,39547,1318.233,40.11404,-88.22441,225.1052,-1,-1,10,65.34356,1415908793,0.01019287,-0.02427673,-1.001907,20.14378,-29.50923,7.078369,211.329,214.4114,25,-0.05863588,-0.06703443,-0.01605567,-0.6861942,0.01147605,0.02472108,0.0005338239,-0.0001613223,-0.0009889068,-0.002179684,-0.001953799,-0.002065105,172.17.160.76,10.175.81.193,5,stationary,2,2014-11-13 13:59:32.713,15,2014-11-13 13:57:29.604,0
2014-11-13 14:00:11.799,39548,1318.267,40.11404,-88.22441,225.1052,-1,-1,10,65.34356,1415908793,0.01164246,-0.02392578,-1.000336,20.14378,-29.37141,6.944336,211.3325,214.4148,25,-0.05649976,-0.06598088,-0.0171196,-0.6862066,0.01140435,0.02468732,-0.0005350973,0.0009091529,8.212489e-05,0.001142094,0.0005454061,0.001888575,172.17.160.76,10.175.81.193,5,stationary,2,2014-11-13 13:59:32.713,15,2014-11-13 13:57:29.604,0
2014-11-13 14:00:11.832,39549,1318.3,40.11404,-88.22441,225.1052,-1,-1,10,65.34356,1415908793,0.007644653,-0.02380371,-0.9981537,20.41942,-29.64706,6.676208,211.3335,214.4159,25,-0.05757701,-0.06808158,-0.01394218,-0.6862162,0.01142831,0.02469938,0.001595015,-0.001217347,6.284921e-05,0.0002178779,0.0007710817,-0.00070599,172.17.160.76,10.175.81.193,5,stationary,2,2014-11-13 13:59:32.713,15,2014-11-13 13:57:29.604,0
2014-11-13 14:00:11.866,39550,1318.333,40.11404,-88.22441,225.1052,-1,-1,10,65.34356,1415908793,0.009765625,-0.02520752,-0.9977264,20.90179,-29.50923,6.743164,211.3506,214.4329,25,-0.05863668,-0.06809703,-0.01606126,-0.6861982,0.01141954,0.02467023,0.0005308557,0.001970606,8.352286e-05,-0.003771165,0.0008640203,0.001476836,172.17.160.76,10.175.81.193,5,stationary,2,2014-11-13 13:59:32.713,15,2014-11-13 13:57:29.604,0
2014-11-13 14:00:11.899,39551,1318.367,40.11404,-88.22441,225.1052,-1,-1,10,65.34356,1415908793,0.01280212,-0.02381897,-0.9981232,20.48832,-29.71597,6.810181,211.3566,214.4389,25,-0.05650615,-0.0659649,-0.01499653,-0.686214,0.01132717,0.02468963,0.001603955,0.003026216,-0.0009757605,0.0009140708,0.000639269,0.0008365387,172.17.160.76,10.175.81.193,5,stationary,2,2014-11-13 13:59:32.713,15,2014-11-13 13:57:29.604,0
2014-11-13 14:00:11.932,39552,1318.4,40.11404,-88.22441,225.1052,-1,-1,10,65.34356,1415908793,0.01115417,-0.0247345,-0.9983826,20.14376,-29.64705,6.877258,211.3535,214.4358,25,-0.05863509,-0.06597183,-0.01605007,-0.6862146,0.01142467,0.0246808,0.0005326044,0.000909632,7.847572e-05,0.002418776,0.000447336,-0.0005376432,172.17.160.76,10.175.81.193,5,stationary,2,2014-11-13 13:59:32.713,15,2014-11-13 13:57:29.604,0
2014-11-13 14:00:11.966,39553,1318.433,40.11404,-88.22441,225.1052,-1,-1,10,65.34356,1415908793,0.01014709,-0.02394104,-1.000137,20.41941,-29.64705,6.40802,211.3518,214.4341,25,-0.05970514,-0.06702591,-0.01499014,-0.6862078,0.01147489,0.02467903,-0.0005369601,0.0009179489,0.001143905,-0.0003169733,-5.797096e-05,0.001247104,172.17.160.76,10.175.81.193,5,stationary,2,2014-11-13 13:59:32.713,15,2014-11-13 13:57:29.604,0
2014-11-13 14:00:11.999,39554,1318.467,40.11404,-88.22441,225.1052,-1,-1,10,65.34356,1415908793,0.01264954,-0.02426147,-1.000198,20.69506,-29.71596,6.475098,211.3584,214.4408,25,-0.05756902,-0.06597236,-0.01605407,-0.6861869,0.01137757,0.0246713,-0.0005349344,-0.0001535128,7.66571e-05,-0.0002502015,-0.000416655,0.002545404,172.17.160.76,10.175.81.193,5,stationary,2,2014-11-13 13:59:32.713,15,2014-11-13 13:57:29.604,0
2014-11-13 14:00:12.032,39555,1318.5,40.11404,-88.22441,225.1052,-1,-1,10,65.34356,1415908793,0.01239014,-0.02374268,-0.9983215,20.90179,-29.78487,6.341064,211.3646,214.447,25,-0.05970514,-0.06702591,-0.01499014,-0.6861909,0.01141568,0.02467703,0.0005309824,-0.0001541676,7.261189e-05,0.0004898971,-0.000700841,-0.0009494348,172.17.160.76,10.175.81.193,5,stationary,2,2014-11-13 13:59:32.713,15,2014-11-13 13:57:29.604,0
2014-11-13 14:00:12.066,39556,1318.533,40.11404,-88.22441,225.1052,-1,-1,10,65.34356,1415908793,0.009872437,-0.02519226,-0.9981537,20.41941,-29.85378,6.87738,211.3634,214.4458,25,-0.05756423,-0.06385515,-0.01710442,-0.6861849,0.01147872,0.02464593,0.0005304011,-0.0001437025,0.001134725,0.0009151496,0.0009007612,0.001308911,172.17.160.76,10.175.81.193,5,stationary,2,2014-11-13 13:59:32.713,15,2014-11-13 13:57:29.604,0
2014-11-13 14:00:12.099,39557,1318.567,40.11404,-88.22441,225.1052,-1,-1,10,65.34356,1415908793,0.01296997,-0.02552795,-1.000198,20.59169,-30.09497,6.6427,211.3595,214.4419,25,-0.05863029,-0.06385461,-0.01710042,-0.6861956,0.01140881,0.02468577,-0.0005318897,0.0009105296,8.265931e-05,-0.00153265,-0.0005089992,0.001476575,172.17.160.76,10.175.81.193,5,stationary,2,2014-11-13 13:59:32.713,15,2014-11-13 13:57:29.604,0
2014-11-13 14:00:12.132,39558,1318.6,40.11404,-88.22441,225.1052,-1,-1,10,65.34356,1415908793,0.01173401,-0.02371216,-0.9996643,20.28159,-30.40507,6.877319,211.3512,214.4335,25,-0.05863748,-0.06490123,-0.01498294,-0.6862027,0.01137195,0.02468359,-0.0005337051,-0.001215281,7.141841e-05,-6.147979e-05,0.000480647,0.001126097,172.17.160.76,10.175.81.193,5,stationary,2,2014-11-13 13:59:32.713,15,2014-11-13 13:57:29.604,0
2014-11-13 14:00:12.166,39559,1318.633,40.11404,-88.22441,225.1052,-1,-1,10,65.34356,1415908793,0.01025391,-0.02531433,-1.000793,20.3505,-30.12943,6.609131,211.3412,214.4236,25,-0.05863588,-0.06703443,-0.01605567,-0.686196,0.01147621,0.02469301,0.001599399,0.0009086012,7.442577e-05,0.0003530984,-0.0008832252,-0.001438803,172.17.160.76,10.175.81.193,5,stationary,2,2014-11-13 13:59:32.713,15,2014-11-13 13:57:29.604,0
2014-11-13 14:00:12.199,39560,1318.667,40.11404,-88.22441,225.1052,-1,-1,10,65.34356,1415908793,0.008850098,-0.02410889,-0.9979401,19.97149,-29.6815,6.776733,211.3303,214.4126,25,-0.05756742,-0.06384715,-0.01604288,-0.6861984,0.01143788,0.02470495,-0.0005313648,-0.001224033,-0.0009903995,7.098355e-05,-0.000367757,0.001109559,172.17.160.76,10.175.81.193,5,stationary,2,2014-11-13 13:59:32.713,15,2014-11-13 13:57:29.604,0
2014-11-13 14:00:12.232,39561,1318.7,40.11404,-88.22441,225.1052,-1,-1,10,65.34356,1415908793,0.01127625,-0.02461243,-0.9972534,20.41941,-29.37141,6.542114,211.3341,214.4164,25,-0.05863668,-0.06809703,-0.01606126,-0.6861941,0.0113925,0.02468039,0.0005373721,0.003035791,9.011111e-05,-0.001623155,0.0003553764,-0.001941075,172.17.160.76,10.175.81.193,5,stationary,2,2014-11-13 13:59:32.713,15,2014-11-13 13:57:29.604,0
2014-11-13 14:00:12.266,39562,1318.733,40.11404,-88.22441,225.1052,-1,-1,10,65.34356,1415908793,0.01313782,-0.02546692,-1.000549,20.66059,-29.81933,6.977905,211.3391,214.4215,25,-0.05756582,-0.06598035,-0.0171156,-0.686204,0.01144118,0.02467449,0.0005370979,0.003035753,9.000618e-05,-0.0001612009,5.956341e-05,0.002376752,172.17.160.76,10.175.81.193,5,stationary,2,2014-11-13 13:59:32.713,15,2014-11-13 13:57:29.604,0
2014-11-13 14:00:12.299,39563,1318.767,40.11404,-88.22441,225.1052,-1,-1,10,65.34356,1415908793,0.009155273,-0.02470398,-0.9957275,20.62614,-29.92269,6.944336,211.3403,214.4227,25,-0.05756902,-0.06597236,-0.01605407,-0.6862131,0.01147968,0.02467537,-0.001599426,-0.002276384,6.991164e-05,0.0008531706,-0.0002142226,-0.001514701,172.17.160.76,10.175.81.193,5,stationary,2,2014-11-13 13:59:32.713,15,2014-11-13 13:57:29.604,0
2014-11-13 14:00:12.332,39564,1318.8,40.11404,-88.22441,225.1052,-1,-1,10,65.34356,1415908793,0.01264954,-0.02526855,-1.002136,20.38495,-29.81933,7.111938,211.34,214.4224,25,-0.05756742,-0.06384715,-0.01604288,-0.6862037,0.01139754,0.02472785,0.001598568,0.001979616,0.00114175,-0.00223854,2.13513e-05,0.003901812,172.17.160.76,10.175.81.193,5,stationary,2,2014-11-13 13:59:32.713,15,2014-11-13 13:57:29.604,0
2014-11-13 14:00:12.366,39565,1318.833,40.11404,-88.22441,225.1052,-1,-1,10,65.34356,1415908793,0.01330566,-0.0244751,-0.9998627,19.83367,-29.54369,6.84375,211.3332,214.4156,25,-0.05863109,-0.06491721,-0.01710602,-0.6862065,0.01138693,0.02474595,0.0005397592,-0.0001589599,-0.0009879289,-0.0009309237,0.0001157394,0.001749996,172.17.160.76,10.175.81.193,5,stationary,2,2014-11-13 13:59:32.713,15,2014-11-13 13:57:29.604,0
2014-11-13 14:00:12.398,39566,1318.867,40.11404,-88.22441,225.1052,-1,-1,10,65.34356,1415908793,0.01176453,-0.0249939,-0.998764,20.07485,-29.50923,6.810303,211.3272,214.4096,25,-0.05863509,-0.06597183,-0.01605007,-0.6862112,0.01147268,0.0247507,0.0005377837,0.00197414,8.468773e-05,0.001836754,0.0002730759,-0.0002347441,172.17.160.76,10.175.81.193,5,stationary,2,2014-11-13 13:59:32.713,15,2014-11-13 13:57:29.604,0
2014-11-13 14:00:12.433,39567,1318.9,40.11404,-88.22441,225.1052,-1,-1,10,65.34356,1415908793,0.01324463,-0.0249176,-1.001862,19.90258,-29.81933,6.508606,211.3194,214.4018,25,-0.05863588,-0.06703443,-0.01605567,-0.6862199,0.011474,0.02474607,-0.00159378,-0.001220921,-0.0009857165,0.0002942925,-0.0002503498,0.0008639881,172.17.160.76,10.175.81.193,5,stationary,2,2014-11-13 13:59:32.713,15,2014-11-13 13:57:29.604,0
2014-11-13 14:00:12.466,39568,1318.933,40.11404,-88.22441,225.1052,-1,-1,10,65.34356,1415908793,0.0105896,-0.0244751,-0.9942627,20.31604,-29.81933,6.575623,211.3092,214.3915,25,-0.05970035,-0.06490869,-0.01604049,-0.6862296,0.01156151,0.02476338,-0.0005290509,-0.002284261,-0.0009954416,0.0001457811,7.212523e-05,-0.0008769498,172.17.160.76,10.175.81.193,5,stationary,2,2014-11-13 13:59:32.713,15,2014-11-13 13:57:29.604,0
2014-11-13 14:00:12.499,39569,1318.967,40.11404,-88.22441,225.1052,-1,-1,10,65.34356,1415908793,0.01208496,-0.02552795,-1.000092,20.38495,-30.16389,6.575623,211.3051,214.3875,25,-0.05650136,-0.06384769,-0.01604688,-0.6862207,0.01155698,0.02473978,0.0005364043,0.001972981,8.434137e-05,-0.001268763,1.801358e-05,-0.0004185497,172.17.160.76,10.175.81.193,5,stationary,2,2014-11-13 13:59:32.713,15,2014-11-13 13:57:29.604,0
2014-11-13 14:00:12.532,39570,1319,40.11404,-88.22441,225.1052,-1,-1,10,65.34356,1415908793,0.01327515,-0.02441406,-1.00029,20.45386,-30.3017,7.0448,211.2962,214.3786,25,-0.05756662,-0.06704295,-0.0171212,-0.6862175,0.0115093,0.02479628,0.0005371703,-0.0001504577,7.379161e-05,0.0005794524,-0.000734215,-0.0004651756,172.17.160.76,10.175.81.193,5,stationary,2,2014-11-13 13:59:32.713,15,2014-11-13 13:57:29.604,0
2014-11-13 14:00:12.566,39571,1319.033,40.11404,-88.22441,225.1052,-1,-1,10,65.34356,1415908793,0.01287842,-0.02670288,-0.9981384,20.62614,-29.99159,7.413574,211.2938,214.3762,25,-0.06076881,-0.06809597,-0.01605327,-0.6862426,0.01150559,0.02478681,0.0005416548,0.001966552,-0.0009766438,0.001773341,0.0003702118,-0.0006632626,172.17.160.76,10.175.81.193,5,stationary,2,2014-11-13 13:59:32.713,15,2014-11-13 13:57:29.604,0
2014-11-13 14:00:12.599,39572,1319.067,40.11404,-88.22441,225.1052,-1,-1,10,65.34356,1415908793,0.01127625,-0.02607727,-0.9969177,20.66059,-29.40585,7.51416,211.301,214.3834,25,-0.05970354,-0.0691591,-0.01606286,-0.68624,0.01159345,0.02482416,-0.001597189,-0.002275145,7.034522e-05,0.000541119,-0.001576097,-0.00373222,172.17.160.76,10.175.81.193,5,stationary,2,2014-11-13 13:59:32.713,15,2014-11-13 13:57:29.604,0
2014-11-13 14:00:12.632,39573,1319.1,40.11404,-88.22441,225.1052,-1,-1,10,65.34356,1415908793,0.01177979,-0.02441406,-1.000565,21.0396,-29.16467,7.279541,211.3253,214.4077,25,-0.05756503,-0.06491775,-0.01711001,-0.6862423,0.01152369,0.02482633,-0.0005248262,0.001966253,-0.0009728714,-0.0002436434,-0.001253487,0.002707741,172.17.160.76,10.175.81.193,5,stationary,2,2014-11-13 13:59:32.713,15,2014-11-13 13:57:29.604,0
2014-11-13 14:00:12.666,39574,1319.133,40.11404,-88.22441,225.1052,-1,-1,10,65.34356,1415908793,0.0138855,-0.02407837,-0.9993591,20.90178,-29.85377,6.810303,211.3448,214.4272,25,-0.05969875,-0.06278349,-0.0160293,-0.6862488,0.0114955,0.02480968,0.0005358721,-0.0001522315,7.335967e-05,0.0002728153,0.0007898001,-0.0002975026,172.17.160.76,10.175.81.193,5,stationary,2,2014-11-13 13:59:32.713,15,2014-11-13 13:57:29.604,0
2014-11-13 14:00:12.699,39575,1319.167,40.11404,-88.22441,225.1052,-1,-1,10,65.34356,1415908793,0.01115417,-0.02427673,-1.001114,20.79841,-30.23277,6.508667,211.3454,214.4278,25,-0.05756503,-0.06491775,-0.01711001,-0.6862486,0.01160733,0.02477536,-0.001597431,-0.0001406821,0.001143458,0.001915775,-0.0004499533,0.001197418,172.17.160.76,10.175.81.193,5,stationary,2,2014-11-13 13:59:32.713,15,2014-11-13 13:57:29.604,0
2014-11-13 14:00:12.732,39576,1319.2,40.11404,-88.22441,225.1052,-1,-1,10,65.34356,1415908793,0.01081848,-0.02516174,-1.000137,20.7295,-30.3706,6.240479,211.3406,214.423,25,-0.0554337,-0.06172302,-0.01603969,-0.6862747,0.01144386,0.0247807,-0.0005294381,-0.001212916,7.222019e-05,-0.001720243,2.840933e-05,0.00484602,172.17.160.76,10.175.81.193,5,stationary,2,2014-11-13 13:59:32.713,15,2014-11-13 13:57:29.604,0
2014-11-13 14:00:12.766,39577,1319.233,40.11404,-88.22441,225.1052,-1,-1,10,65.34356,1415908793,0.01411438,-0.02429199,-0.9979706,20.97069,-30.0605,6.40802,211.3441,214.4265,25,-0.05757142,-0.06490177,-0.01498694,-0.6862668,0.01144007,0.02480816,0.0005355979,0.00198185,0.001146481,-0.000617816,-0.0003561291,-0.0005104524,172.17.160.76,10.175.81.193,5,stationary,2,2014-11-13 13:59:32.713,15,2014-11-13 13:57:29.604,0
2014-11-13 14:00:12.799,39578,1319.267,40.11404,-88.22441,225.1052,-1,-1,10,65.34356,1415908793,0.01367188,-0.0244751,-1.003616,21.14297,-30.02605,6.776672,211.3514,214.4337,25,-0.05863748,-0.06490123,-0.01498294,-0.6862609,0.01152656,0.02481287,-0.0005291932,-0.0001508659,7.764997e-05,0.002591626,0.0005183322,0.001655186,172.17.160.76,10.175.81.193,5,stationary,2,2014-11-13 13:59:32.713,15,2014-11-13 13:57:29.604,0
2014-11-13 14:00:12.832,39579,1319.3,40.11404,-88.22441,225.1052,-1,-1,10,65.34356,1415908793,0.00831604,-0.02606201,-0.9963226,21.00515,-29.6815,7.044922,211.3695,214.4518,25,-0.05650136,-0.06384769,-0.01604688,-0.6862624,0.01169835,0.02474398,-0.001600723,-0.002267123,0.001131839,0.001977368,0.0002663566,-0.003990854,172.17.160.76,10.175.81.193,5,stationary,2,2014-11-13 13:59:32.713,15,2014-11-13 13:57:29.604,0
2014-11-13 14:00:12.866,39580,1319.333,40.11404,-88.22441,225.1052,-1,-1,10,65.34356,1415908793,0.01422119,-0.02534485,-1.000031,20.90178,-29.57814,7.480652,211.3879,214.4702,25,-0.05863189,-0.06597982,-0.01711161,-0.6862526,0.01156551,0.02478391,0.0005356578,-0.0001415543,0.001135628,-0.003245661,-0.001280638,0.003303404,172.17.160.76,10.175.81.193,5,stationary,2,2014-11-13 13:59:32.713,15,2014-11-13 13:57:29.604,0
2014-11-13 14:00:12.899,39581,1319.367,40.11404,-88.22441,225.1052,-1,-1,10,65.34356,1415908793,0.01397705,-0.02362061,-0.9988098,20.7295,-29.6815,7.447144,211.3922,214.4746,25,-0.05863428,-0.06490923,-0.01604448,-0.6862693,0.0115059,0.02483865,-0.001591002,-0.001219823,-0.0009851668,0.002719095,-0.0005087521,-0.0004051527,172.17.160.76,10.175.81.193,5,stationary,2,2014-11-13 13:59:32.713,15,2014-11-13 13:57:29.604,0
