time,timestamp,recordtime,lat,long,alt,speed,course,verticalAccuracy,horizontalAccuracy,locTimeStamp,accelerationX,accelerationY,accelerationZ,HeadingX,HeadingY,HeadingZ,TrueHeading,MagneticHeading,HeadingAccuracy,RotationX,RotationY,RotationZ,motionYaw,motionRoll,motionPitch,motionRotationRateX,motionRotationRateY,motionRotationRateZ,motionUserAccelerationX,motionUserAccelerationY,motionUserAccelerationZ,en0,pdp_ip0,DeviceOrientation,Activity,Activity Confidence,Activity Start,Steps,Last Step Date,State
2014-11-13 14:10:01.365,57235,1907.833,40.11402,-88.22445,225.116,-1,-1,10,65.41203,1415909268,0.02766418,-0.02682495,-1.000351,23.34797,-28.16551,7.509705,217.2449,220.3273,25,-0.05863588,-0.06703443,-0.01605567,-0.8238387,0.02772648,0.02525591,-0.0003951881,0.001142161,-0.0006296739,-0.00122483,-0.0001526612,-0.00315981,172.17.160.76,10.175.81.193,5,stationary,2,2014-11-13 14:09:21.708,15,2014-11-13 13:57:29.604,0
2014-11-13 14:10:01.399,57236,1907.867,40.11402,-88.22445,225.116,-1,-1,10,65.41203,1415909268,0.02587891,-0.02613831,-1.000763,23.41688,-27.68314,7.777832,217.2471,220.3295,25,-0.05756982,-0.06703496,-0.01605966,-0.8238208,0.02770401,0.02530595,0.0006635064,9.453864e-05,0.00148372,-0.0001952582,-0.0005909181,0.00160029,172.17.160.76,10.175.81.193,5,stationary,2,2014-11-13 14:09:21.708,15,2014-11-13 13:57:29.604,0
2014-11-13 14:10:01.432,57237,1907.9,40.11402,-88.22445,225.116,-1,-1,10,65.41203,1415909268,0.0269165,-0.02452087,-0.9983063,23.41688,-27.4764,8.045959,217.2575,220.3399,25,-0.05969875,-0.06704188,-0.01711321,-0.8238025,0.02770323,0.02533113,-0.0003921778,0.001145193,-0.0006287723,-0.00181189,-0.0008098839,-0.001467342,172.17.160.76,10.175.81.193,5,stationary,2,2014-11-13 14:09:21.708,15,2014-11-13 13:57:29.604,0
2014-11-13 14:10:01.466,57238,1907.933,40.11402,-88.22445,225.116,-1,-1,10,65.41203,1415909268,0.02682495,-0.02519226,-0.9991302,23.65807,-27.51086,7.610291,217.2724,220.3548,25,-0.05970514,-0.06702591,-0.01499014,-0.8238177,0.02771961,0.02526436,-0.000396887,9.019826e-05,0.0004270132,0.001711732,0.0002220015,-0.001206708,172.17.160.76,10.175.81.193,5,stationary,2,2014-11-13 14:09:21.708,15,2014-11-13 13:57:29.604,0
2014-11-13 14:10:01.499,57239,1907.967,40.11402,-88.22445,225.116,-1,-1,10,65.41203,1415909268,0.02557373,-0.02568054,-0.9993591,23.72698,-27.92432,7.543213,217.2757,220.3581,25,-0.05863509,-0.06597183,-0.01605007,-0.8238086,0.02767224,0.02525708,-0.001467229,-0.0009643042,0.001486887,-0.00083493,6.213433e-05,0.0001680781,172.17.160.76,10.175.81.193,5,stationary,2,2014-11-13 14:09:21.708,15,2014-11-13 13:57:29.604,0
2014-11-13 14:10:01.532,57240,1908,40.11402,-88.22445,225.116,-1,-1,10,65.41203,1415909268,0.02755737,-0.02557373,-0.9964447,23.65806,-27.99323,7.074036,217.2779,220.3603,25,-0.05863189,-0.06597982,-0.01711161,-0.8238155,0.02757765,0.02526177,-0.0003967634,0.001151395,0.0004324235,-0.0002521283,-9.470177e-06,-0.001263755,172.17.160.76,10.175.81.193,5,stationary,2,2014-11-13 14:09:21.708,15,2014-11-13 13:57:29.604,0
2014-11-13 14:10:01.566,57241,1908.033,40.11402,-88.22445,225.116,-1,-1,10,65.41203,1415909268,0.02886963,-0.02497864,-1.000839,23.52024,-28.26888,7.342163,217.2731,220.3555,25,-0.05863109,-0.06491721,-0.01710602,-0.8238247,0.0275807,0.02528342,0.0006682138,8.794809e-05,0.0004227372,-1.10147e-05,-0.0002930043,0.002855487,172.17.160.76,10.175.81.193,5,stationary,2,2014-11-13 14:09:21.708,15,2014-11-13 13:57:29.604,0
2014-11-13 14:10:01.599,57242,1908.067,40.11402,-88.22445,225.116,-1,-1,10,65.41203,1415909268,0.02650452,-0.02455139,-0.9969177,23.45133,-27.92432,7.275146,217.2728,220.3552,25,-0.05756742,-0.06384715,-0.01604288,-0.8238404,0.02756383,0.02526539,-0.0003918275,8.398607e-05,-0.0006335581,-0.0003146087,-0.0001584388,0.003955041,172.17.160.76,10.175.81.193,5,stationary,2,2014-11-13 14:09:21.708,15,2014-11-13 13:57:29.604,0
2014-11-13 14:10:01.632,57243,1908.1,40.11402,-88.22445,225.116,-1,-1,10,65.41203,1415909268,0.02583313,-0.02481079,-1.002869,23.34796,-27.95879,7.710754,217.27,220.3523,25,-0.05863509,-0.06597183,-0.01605007,-0.8238365,0.02753576,0.02527632,0.0006708224,9.101086e-05,0.0004239217,-0.001018968,0.000722235,0.002383882,172.17.160.76,10.175.81.193,5,stationary,2,2014-11-13 14:09:21.708,15,2014-11-13 13:57:29.604,0
2014-11-13 14:10:01.666,57244,1908.133,40.11402,-88.22445,225.116,-1,-1,10,65.41203,1415909268,0.02912903,-0.0254364,-1.002472,23.52024,-27.78651,7.744324,217.2687,220.351,25,-0.05863668,-0.06809703,-0.01606126,-0.8238572,0.02754346,0.02529044,0.0006695736,-0.0009720755,0.0004181976,-0.0005078504,0.0005379913,0.0007811406,172.17.160.76,10.175.81.193,5,stationary,2,2014-11-13 14:09:21.708,15,2014-11-13 13:57:29.604,0
2014-11-13 14:10:01.699,57245,1908.167,40.11402,-88.22445,225.116,-1,-1,10,65.41203,1415909268,0.02728271,-0.02616882,-0.9965057,23.79589,-27.78651,7.945435,217.2744,220.3567,25,-0.05863349,-0.06810502,-0.01712279,-0.8238591,0.02752706,0.02527107,-0.0003959766,9.07802e-05,0.0004277175,0.0001951608,0.0001676707,0.0007057874,172.17.160.76,10.175.81.193,5,stationary,2,2014-11-13 14:09:21.708,15,2014-11-13 13:57:29.604,0
2014-11-13 14:10:01.732,57246,1908.2,40.11402,-88.22445,225.116,-1,-1,10,65.41203,1415909268,0.02635193,-0.02487183,-1.001053,23.69252,-27.82097,7.978943,217.2845,220.3669,25,-0.05756982,-0.06703496,-0.01605966,-0.823875,0.02755245,0.02524647,-0.000397388,-0.0009723676,0.0004219389,0.001558327,0.0004940342,0.001224508,172.17.160.76,10.175.81.193,5,stationary,2,2014-11-13 14:09:21.708,15,2014-11-13 13:57:29.604,0
2014-11-13 14:10:01.765,57247,1908.233,40.11402,-88.22445,225.116,-1,-1,10,65.41203,1415909268,0.02732849,-0.02505493,-0.998291,23.65807,-27.71761,7.945374,217.2967,220.3791,25,-0.05756902,-0.06597236,-0.01605407,-0.8238884,0.02753948,0.02525719,0.001741803,8.4906e-05,-0.0006404126,-0.001175285,0.0003826728,-0.001750869,172.17.160.76,10.175.81.193,5,stationary,2,2014-11-13 14:09:21.708,15,2014-11-13 13:57:29.604,0
2014-11-13 14:10:01.799,57248,1908.267,40.11402,-88.22445,225.116,-1,-1,10,65.41203,1415909268,0.02679443,-0.02545166,-0.9953003,23.21015,-27.88988,7.509644,217.2934,220.3758,25,-0.05970035,-0.06490869,-0.01604049,-0.8238875,0.02750126,0.02524931,-0.0003909334,8.534384e-05,-0.0006325569,-0.0005420088,0.0003290206,-0.001993759,172.17.160.76,10.175.81.193,5,stationary,2,2014-11-13 14:09:21.708,15,2014-11-13 13:57:29.604,0
2014-11-13 14:10:01.832,57249,1908.3,40.11402,-88.22445,225.116,-1,-1,10,65.41203,1415909268,0.02798462,-0.02505493,-1.000641,23.24461,-27.99324,7.073914,217.2839,220.3663,25,-0.05863588,-0.06703443,-0.01605567,-0.8238791,0.02746761,0.02524576,-0.0003952114,-0.0009697399,0.0004232907,-0.0001879525,-0.000269618,0.00171514,172.17.160.76,10.175.81.193,5,stationary,2,2014-11-13 14:09:21.708,15,2014-11-13 13:57:29.604,0
2014-11-13 14:10:01.865,57250,1908.333,40.11402,-88.22445,225.116,-1,-1,10,65.41203,1415909268,0.02781677,-0.02511597,-0.9998169,23.1757,-28.19997,6.872803,217.2702,220.3525,25,-0.05650216,-0.06491029,-0.01605247,-0.823872,0.02748267,0.02523125,0.0006712948,9.208975e-05,0.0004248024,0.000514154,0.0001736426,-0.001336665,172.17.160.76,10.175.81.193,5,stationary,2,2014-11-13 14:09:21.708,15,2014-11-13 13:57:29.604,0
2014-11-13 14:10:01.899,57251,1908.367,40.11402,-88.22445,225.116,-1,-1,10,65.41203,1415909268,0.02760315,-0.02552795,-0.9962769,23.21015,-27.95879,7.37561,217.2664,220.3488,25,-0.05863509,-0.06597183,-0.01605007,-0.8238577,0.02751265,0.0252781,-0.0003919602,9.607284e-05,0.0004306254,0.0003926782,0.0002662559,-0.001537036,172.17.160.76,10.175.81.193,5,stationary,2,2014-11-13 14:09:21.708,15,2014-11-13 13:57:29.604,0
2014-11-13 14:10:01.932,57252,1908.4,40.11402,-88.22445,225.116,-1,-1,10,65.41203,1415909268,0.02830505,-0.02555847,-0.9997559,23.31352,-27.37304,7.543152,217.2723,220.3547,25,-0.05756662,-0.06704295,-0.0171212,-0.8238715,0.02752198,0.0252598,0.0006793147,-0.0009833553,-0.001702136,-0.001340906,0.0004310601,0.001331822,172.17.160.76,10.175.81.193,5,stationary,2,2014-11-13 14:09:21.708,15,2014-11-13 13:57:29.604,0
2014-11-13 14:10:01.966,57253,1908.433,40.11402,-88.22445,225.116,-1,-1,10,65.41203,1415909268,0.02653503,-0.02529907,-0.9973907,23.34797,-27.26967,7.844727,217.2853,220.3676,25,-0.05863428,-0.06490923,-0.01604448,-0.8238955,0.02752706,0.025245,-0.001455545,8.79444e-05,-0.0006271168,-0.001117107,0.0001873896,-0.0003616696,172.17.160.76,10.175.81.193,5,stationary,2,2014-11-13 14:09:21.708,15,2014-11-13 13:57:29.604,0
2014-11-13 14:10:01.999,57254,1908.467,40.11402,-88.22445,225.116,-1,-1,10,65.41203,1415909268,0.02624512,-0.02514648,-1.001221,23.58916,-27.57977,7.610107,217.2904,220.3728,25,-0.05863588,-0.06703443,-0.01605567,-0.8239135,0.02747349,0.0252657,0.001741546,-0.0009769191,-0.0006448019,-1.070005e-05,-0.0004480476,0.001516112,172.17.160.76,10.175.81.193,5,stationary,2,2014-11-13 14:09:21.708,15,2014-11-13 13:57:29.604,0
2014-11-13 14:10:02.032,57255,1908.5,40.11402,-88.22445,225.116,-1,-1,10,65.41203,1415909268,0.027771,-0.02400208,-0.9981384,24.07153,-27.99324,7.408997,217.3002,220.3826,25,-0.05756822,-0.06490976,-0.01604847,-0.8239146,0.02746622,0.02525581,-0.0003939475,-0.0009679869,0.0004246886,0.0002406921,0.0006101792,-0.003152629,172.17.160.76,10.175.81.193,5,stationary,2,2014-11-13 14:09:21.708,15,2014-11-13 13:57:29.604,0
2014-11-13 14:10:02.066,57256,1908.533,40.11402,-88.22445,225.116,-1,-1,10,65.41203,1415909268,0.02644348,-0.02458191,-0.9959106,24.24381,-27.95879,6.839172,217.3148,220.3972,25,-0.0607712,-0.06702537,-0.01498614,-0.8239049,0.02747359,0.02520038,-0.002523269,9.864174e-05,0.0004400049,-0.0001939528,0.0006310589,0.001059993,172.17.160.76,10.175.81.193,5,stationary,2,2014-11-13 14:09:21.708,15,2014-11-13 13:57:29.604,0
2014-11-13 14:10:02.099,57257,1908.567,40.11402,-88.22445,225.116,-1,-1,10,65.41203,1415909268,0.02861023,-0.02589417,-1.001785,24.07153,-27.85542,6.671631,217.3226,220.4049,25,-0.05863509,-0.06597183,-0.01605007,-0.8239008,0.027485,0.02519064,-0.002527454,-0.0009562604,0.001495885,-0.001029334,0.0006060684,0.003394519,172.17.160.76,10.175.81.193,5,stationary,2,2014-11-13 14:09:21.708,15,2014-11-13 13:57:29.604,0
2014-11-13 14:10:02.133,57258,1908.6,40.11402,-88.22445,225.116,-1,-1,10,65.41203,1415909268,0.02867126,-0.02461243,-0.9977875,23.79589,-28.26889,6.805664,217.3284,220.4108,25,-0.05863748,-0.06915963,-0.01606685,-0.8238733,0.02749824,0.02523464,0.0006744463,9.624687e-05,0.0004278291,8.661104e-05,-0.0005859083,-0.0005437212,172.17.160.76,10.175.81.193,5,stationary,2,2014-11-13 14:09:21.708,15,2014-11-13 13:57:29.604,0
2014-11-13 14:10:02.166,57259,1908.633,40.11402,-88.22445,225.116,-1,-1,10,65.41203,1415909268,0.02880859,-0.02459717,-0.9980621,23.55471,-28.30335,7.174377,217.3225,220.4048,25,-0.05756263,-0.06598834,-0.01817714,-0.8238719,0.02751171,0.0252005,-0.0003921407,9.636133e-05,0.0004317047,0.0008360613,0.001088943,-0.001596087,172.17.160.76,10.175.81.193,5,stationary,2,2014-11-13 14:09:21.708,15,2014-11-13 13:57:29.604,0
2014-11-13 14:10:02.199,57260,1908.667,40.11402,-88.22445,225.116,-1,-1,10,65.41203,1415909268,0.02668762,-0.02597046,-1.001373,23.65807,-28.33781,7.543091,217.3198,220.4022,25,-0.05863668,-0.06383863,-0.01497735,-0.823881,0.02749195,0.02517258,-0.0003926921,9.582087e-05,0.0004315708,-0.0008837043,0.00081689,0.003013313,172.17.160.76,10.175.81.193,5,stationary,2,2014-11-13 14:09:21.708,15,2014-11-13 13:57:29.604,0
2014-11-13 14:10:02.232,57261,1908.7,40.11402,-88.22445,225.116,-1,-1,10,65.41203,1415909268,0.02656555,-0.02442932,-1.00032,23.8648,-27.85543,7.543091,217.3253,220.4077,25,-0.05863269,-0.06704242,-0.0171172,-0.8238565,0.02740831,0.02518034,0.0006745704,-0.002026576,0.0004184015,-0.001440988,0.0004431782,-0.0007229905,172.17.160.76,10.175.81.193,5,stationary,2,2014-11-13 14:09:21.708,15,2014-11-13 13:57:29.604,0
2014-11-13 14:10:02.266,57262,1908.733,40.11402,-88.22445,225.116,-1,-1,10,65.41203,1415909268,0.02986145,-0.02592468,-0.9992523,24.10598,-27.75207,7.509521,217.342,220.4244,25,-0.05650056,-0.06704348,-0.01712519,-0.8238541,0.02737714,0.02513069,0.0006747003,-0.0009644974,0.0004238741,0.0002991094,0.001217519,0.001049131,172.17.160.76,10.175.81.193,5,stationary,2,2014-11-13 14:09:21.708,15,2014-11-13 13:57:29.604,0
2014-11-13 14:10:02.299,57263,1908.767,40.11402,-88.22445,225.116,-1,-1,10,65.41203,1415909268,0.03120422,-0.02592468,-0.9992981,24.2438,-27.61425,7.308411,217.3543,220.4367,25,-0.05756662,-0.06704295,-0.0171212,-0.8238536,0.02743239,0.02514219,-0.000390902,9.851629e-05,0.0004333556,-0.0008852466,0.0003592705,0.003229335,172.17.160.76,10.175.81.193,5,stationary,2,2014-11-13 14:09:21.708,15,2014-11-13 13:57:29.604,0
2014-11-13 14:10:02.332,57264,1908.8,40.11402,-88.22445,225.116,-1,-1,10,65.41203,1415909268,0.02778625,-0.0247345,-0.9982147,24.20934,-27.78653,7.677063,217.3754,220.4578,25,-0.05863588,-0.06703443,-0.01605567,-0.8238579,0.0274405,0.02518776,0.0017402,-0.0009654181,0.0004196745,-0.000221936,-0.0006480353,0.001183289,172.17.160.76,10.175.81.193,5,stationary,2,2014-11-13 14:09:21.708,15,2014-11-13 13:57:29.604,0
2014-11-13 14:10:02.366,57265,1908.833,40.11402,-88.22445,225.116,-1,-1,10,65.41203,1415909268,0.0269165,-0.02418518,-1.000595,24.20934,-27.78653,7.878235,217.3897,220.4721,25,-0.05863349,-0.06810502,-0.01712279,-0.8238562,0.02737373,0.02521146,-0.0003882605,8.964821e-05,-0.0006284053,-0.0002620068,-0.0004564897,0.001001415,172.17.160.76,10.175.81.193,5,stationary,2,2014-11-13 14:09:21.708,15,2014-11-13 13:57:29.604,0
2014-11-13 14:10:02.399,57266,1908.867,40.11402,-88.22445,225.116,-1,-1,10,65.41203,1415909268,0.02774048,-0.02555847,-0.9983978,24.07152,-28.13109,8.012329,217.3937,220.476,25,-0.05863509,-0.06597183,-0.01605007,-0.8238631,0.02736179,0.02521896,-0.0003870806,-0.002032175,-0.0006375076,-0.0004331725,0.001031106,-0.001287265,172.17.160.76,10.175.81.193,5,stationary,2,2014-11-13 14:09:21.708,15,2014-11-13 13:57:29.604,0
2014-11-13 14:10:02.432,57267,1908.9,40.11402,-88.22445,225.116,-1,-1,10,65.41203,1415909268,0.02874756,-0.02568054,-0.9991913,23.96815,-28.09663,7.710693,217.4008,220.4832,25,-0.05756662,-0.06704295,-0.0171212,-0.8238556,0.02737915,0.0252134,0.0006763456,-0.0009623248,0.000425543,0.0003734497,-0.000347744,0.0009096655,172.17.160.76,10.175.81.193,5,stationary,2,2014-11-13 14:09:21.708,15,2014-11-13 13:57:29.604,0
2014-11-13 14:10:02.466,57268,1908.933,40.11402,-88.22445,225.116,-1,-1,10,65.41203,1415909268,0.02732849,-0.02580261,-1.000443,23.79588,-28.26891,7.476074,217.4061,220.4885,25,-0.06076082,-0.06598674,-0.01816516,-0.82386,0.02735954,0.02521245,-0.0003894078,0.0001001545,0.0004349674,-0.0006598091,-0.001416807,0.0001015101,172.17.160.76,10.175.81.193,5,stationary,2,2014-11-13 14:09:21.708,15,2014-11-13 13:57:29.604,0
2014-11-13 14:10:02.499,57269,1908.967,40.11402,-88.22445,225.116,-1,-1,10,65.41203,1415909268,0.02780151,-0.02481079,-0.9973145,23.6236,-28.09663,7.174438,217.4046,220.4869,25,-0.05863109,-0.06491721,-0.01710602,-0.8238687,0.02737488,0.02522691,-0.0003888574,0.001162472,0.0004404602,0.001140666,-0.0009140719,-0.001242047,172.17.160.76,10.175.81.193,5,stationary,2,2014-11-13 14:09:21.708,15,2014-11-13 13:57:29.604,0
2014-11-13 14:10:02.532,57270,1909,40.11402,-88.22445,225.116,-1,-1,10,65.41203,1415909268,0.02684021,-0.02508545,-1.001785,23.21013,-28.02772,7.241455,217.3958,220.4781,25,-0.05756902,-0.06597236,-0.01605407,-0.8238717,0.02737254,0.02523015,0.0006728572,0.0001069321,0.00149231,0.0004411029,0.0004166841,0.001992798,172.17.160.76,10.175.81.193,5,stationary,2,2014-11-13 14:09:21.708,15,2014-11-13 13:57:29.604,0
2014-11-13 14:10:02.565,57271,1909.033,40.11402,-88.22445,225.116,-1,-1,10,65.41203,1415909268,0.02574158,-0.02542114,-0.9991608,23.27904,-27.75208,6.973389,217.3936,220.476,25,-0.05756822,-0.06490976,-0.01604847,-0.8238874,0.02740966,0.02525008,-0.0003841436,9.49541e-05,-0.0006246879,-0.0007098715,-5.903462e-06,0.001396186,172.17.160.76,10.175.81.193,5,stationary,2,2014-11-13 14:09:21.708,15,2014-11-13 13:57:29.604,0
2014-11-13 14:10:02.599,57272,1909.067,40.11402,-88.22445,225.116,-1,-1,10,65.41203,1415909268,0.02655029,-0.02523804,-0.9972687,23.93369,-27.64871,7.275024,217.4047,220.4871,25,-0.05863189,-0.06597982,-0.01711161,-0.8238953,0.02741476,0.02526633,0.0006776594,-0.0009606279,0.0004271659,0.0003684155,0.0003918121,-0.002342767,172.17.160.76,10.175.81.193,5,stationary,2,2014-11-13 14:09:21.708,15,2014-11-13 13:57:29.604,0
2014-11-13 14:10:02.632,57273,1909.1,40.11402,-88.22445,225.116,-1,-1,10,65.41203,1415909268,0.02905273,-0.02462769,-1.00148,24.07151,-27.85544,7.275024,217.4162,220.4986,25,-0.05650296,-0.06597289,-0.01605806,-0.8238977,0.027414,0.02526708,-0.0003847509,9.404914e-05,-0.0006248803,-0.001278769,0.0003925612,0.003470834,172.17.160.76,10.175.81.193,5,stationary,2,2014-11-13 14:09:21.708,15,2014-11-13 13:57:29.604,0
2014-11-13 14:10:02.666,57274,1909.133,40.11402,-88.22445,225.116,-1,-1,10,65.41203,1415909268,0.02618408,-0.0249176,-0.9965668,23.58915,-28.06218,7.073975,217.4179,220.5003,25,-0.05649976,-0.06598088,-0.0171196,-0.8239139,0.02746238,0.02526292,0.001742846,-0.0009618914,0.0004229329,0.001144803,-0.000328754,0.0008908762,172.17.160.76,10.175.81.193,5,stationary,2,2014-11-13 14:09:21.708,15,2014-11-13 13:57:29.604,0
2014-11-13 14:10:02.699,57275,1909.167,40.11402,-88.22445,225.116,-1,-1,10,65.41203,1415909268,0.02684021,-0.02572632,-1.000809,23.31351,-27.99327,7.006958,217.4134,220.4958,25,-0.05863109,-0.06491721,-0.01710602,-0.8239105,0.02743729,0.02525935,0.001746606,9.247035e-05,-0.0006330597,-0.001241015,0.000339064,0.002737968,172.17.160.76,10.175.81.193,5,stationary,2,2014-11-13 14:09:21.708,15,2014-11-13 13:57:29.604,0
2014-11-13 14:10:02.732,57276,1909.2,40.11402,-88.22445,225.116,-1,-1,10,65.41203,1415909268,0.02799988,-0.0246582,-1.000656,23.45133,-27.85545,6.537659,217.4108,220.4931,25,-0.05863509,-0.06597183,-0.01605007,-0.823918,0.0274034,0.02528827,0.000686781,8.819061e-05,-0.001688316,0.0004255646,-0.0012342,0.001364876,172.17.160.76,10.175.81.193,5,stationary,2,2014-11-13 14:09:21.708,15,2014-11-13 13:57:29.604,0
2014-11-13 14:10:02.766,57277,1909.233,40.11402,-88.22445,225.116,-1,-1,10,65.41203,1415909268,0.02935791,-0.02497864,-1.000381,23.62361,-28.16554,7.040466,217.4053,220.4877,25,-0.05863189,-0.06597982,-0.01711161,-0.8239231,0.02739836,0.0252986,-0.0003789285,0.001150961,-0.001678864,-0.0001187115,-0.0003388607,-0.001687005,172.17.160.76,10.175.81.193,5,stationary,2,2014-11-13 14:09:21.708,15,2014-11-13 13:57:29.604,0
2014-11-13 14:10:02.799,57278,1909.267,40.11402,-88.22445,225.116,-1,-1,10,65.41203,1415909268,0.02890015,-0.02593994,-0.998764,23.5547,-28.02773,7.375671,217.4037,220.486,25,-0.05650296,-0.06597289,-0.01605806,-0.8239256,0.02744515,0.02526728,-0.0003864395,0.0001042854,0.0004385409,0.001924967,0.0002859577,-0.001077145,172.17.160.76,10.175.81.193,5,stationary,2,2014-11-13 14:09:21.708,15,2014-11-13 13:57:29.604,0
2014-11-13 14:10:02.832,57279,1909.3,40.11402,-88.22445,225.116,-1,-1,10,65.41203,1415909268,0.02838135,-0.02574158,-0.9975891,23.69252,-28.23445,7.442688,217.4016,220.4839,25,-0.05969795,-0.06597929,-0.01710761,-0.8239346,0.02739673,0.02533091,0.0006760818,0.0001109442,0.001495944,-0.0009105143,-0.0005507025,-0.001199497,172.17.160.76,10.175.81.193,5,stationary,2,2014-11-13 14:09:21.708,15,2014-11-13 13:57:29.604,0
2014-11-13 14:10:02.866,57280,1909.333,40.11402,-88.22445,225.116,-1,-1,10,65.41203,1415909268,0.03051758,-0.02427673,-0.9983826,23.21014,-27.88988,8.381165,217.3899,220.4723,25,-0.06076322,-0.06491615,-0.01709803,-0.8239395,0.0274599,0.02532224,-0.0003840505,9.52622e-05,-0.0006232729,0.0001555032,0.0009665106,-0.001048421,172.17.160.76,10.175.81.193,5,stationary,2,2014-11-13 14:09:21.708,15,2014-11-13 13:57:29.604,0
2014-11-13 14:10:02.899,57281,1909.367,40.11402,-88.22445,225.116,-1,-1,10,65.41203,1415909268,0.0254364,-0.0259552,-1.000839,23.07233,-28.0277,7.978943,217.3823,220.4646,25,-0.05756662,-0.06704295,-0.0171212,-0.8239651,0.02756436,0.02529436,-0.0003819952,-0.0009634412,-0.0006266853,0.001058177,0.0001299217,0.001085642,172.17.160.76,10.175.81.193,5,stationary,2,2014-11-13 14:09:21.708,15,2014-11-13 13:57:29.604,0
2014-11-13 14:10:02.932,57282,1909.4,40.11402,-88.22445,225.116,-1,-1,10,65.41203,1415909268,0.02774048,-0.02494812,-0.9970703,22.69332,-27.99324,7.945435,217.3591,220.4415,25,-0.05863189,-0.06597982,-0.01711161,-0.8239557,0.02749887,0.02531662,-0.001449895,0.001169586,0.0004499437,-0.0003564648,-0.0005955096,-0.001827548,172.17.160.76,10.175.81.193,5,stationary,2,2014-11-13 14:09:21.708,15,2014-11-13 13:57:29.604,0
2014-11-13 14:10:02.965,57283,1909.433,40.11402,-88.22445,225.116,-1,-1,10,65.41203,1415909268,0.02679443,-0.02563477,-0.9988098,22.79669,-28.0277,7.308594,217.3391,220.4214,25,-0.05863588,-0.06703443,-0.01605567,-0.8239691,0.02751401,0.02529116,-0.0003826123,-0.0009645791,-0.0006268885,-0.002080601,-0.0002852708,0.0006293449,172.17.160.76,10.175.81.193,5,stationary,2,2014-11-13 14:09:21.708,15,2014-11-13 13:57:29.604,0
2014-11-13 14:10:02.999,57284,1909.467,40.11402,-88.22445,225.116,-1,-1,10,65.41203,1415909268,0.02923584,-0.0246582,-1.000732,23.10679,-27.92433,7.275085,217.3335,220.4159,25,-0.05650056,-0.06704348,-0.01712519,-0.8239779,0.02755365,0.02528987,-0.0003797405,-0.0009727841,-0.001688526,0.001343533,0.0003237903,0.001147085,172.17.160.76,10.175.81.193,5,stationary,2,2014-11-13 14:09:21.708,15,2014-11-13 13:57:29.604,0
2014-11-13 14:10:03.032,57285,1909.5,40.11402,-88.22445,225.116,-1,-1,10,65.41203,1415909268,0.02867126,-0.02555847,-1.00029,23.24461,-27.92433,7.275085,217.3244,220.4068,25,-0.05757302,-0.06702697,-0.01499812,-0.8239905,0.02755181,0.02526817,0.001748835,-0.0009661211,-0.0006350497,-0.000714579,0.001049779,0.0007356971,172.17.160.76,10.175.81.193,5,stationary,2,2014-11-13 14:09:21.708,15,2014-11-13 13:57:29.604,0
2014-11-13 14:10:03.066,57286,1909.533,40.11402,-88.22445,225.116,-1,-1,10,65.41203,1415909268,0.02560425,-0.02600098,-0.9993134,23.27906,-27.95879,6.839355,217.3209,220.4033,25,-0.05863189,-0.06597982,-0.01711161,-0.8239842,0.02761567,0.02523316,-0.002511478,0.001164528,-0.0006061663,0.001067894,-0.0003279896,-0.0009894232,172.17.160.76,10.175.81.193,5,stationary,2,2014-11-13 14:09:21.708,15,2014-11-13 13:57:29.604,0
2014-11-13 14:10:03.099,57287,1909.567,40.11402,-88.22445,225.116,-1,-1,10,65.41203,1415909268,0.0279541,-0.02487183,-0.9996948,23.27906,-28.09661,6.973389,217.3136,220.3959,25,-0.05756582,-0.06598035,-0.0171156,-0.8240032,0.02757329,0.02526208,0.0006839547,-0.002025565,-0.0006350704,0.0009271629,-0.0002990758,0.001009917,172.17.160.76,10.175.81.193,5,stationary,2,2014-11-13 14:09:21.708,15,2014-11-13 13:57:29.604,0
2014-11-13 14:10:03.132,57288,1909.6,40.11402,-88.22445,225.116,-1,-1,10,65.41203,1415909268,0.02937317,-0.02574158,-0.9991455,23.21016,-28.23442,6.906372,217.3032,220.3856,25,-0.05863509,-0.06597183,-0.01605007,-0.824007,0.02756715,0.02526022,0.0006834508,-0.002026119,-0.0006352027,-4.326927e-05,-0.0002246434,-0.002545164,172.17.160.76,10.175.81.193,5,stationary,2,2014-11-13 14:09:21.708,15,2014-11-13 13:57:29.604,0
2014-11-13 14:10:03.166,57289,1909.633,40.11402,-88.22445,225.116,-1,-1,10,65.41203,1415909268,0.02713013,-0.02565002,-1.002274,23.31353,-28.13106,7.40918,217.2986,220.381,25,-0.05650456,-0.0680981,-0.01606925,-0.8240061,0.02762742,0.02524825,0.0006830989,-0.002026129,-0.0006353118,0.001498671,0.0007094322,0.001466537,172.17.160.76,10.175.81.193,5,stationary,2,2014-11-13 14:09:21.708,15,2014-11-13 13:57:29.604,0
2014-11-13 14:10:03.199,57290,1909.667,40.11402,-88.22445,225.116,-1,-1,10,65.41203,1415909268,0.02604675,-0.0254364,-0.9985657,23.27907,-27.61423,7.710815,217.2976,220.3799,25,-0.05970195,-0.06703389,-0.01605167,-0.8240083,0.02756483,0.02528991,-0.00144795,0.0001113347,0.0004471888,-0.0001019649,-0.0006527275,-0.000348585,172.17.160.76,10.175.81.193,5,stationary,2,2014-11-13 14:09:21.708,15,2014-11-13 13:57:29.604,0
2014-11-13 14:10:03.233,57291,1909.7,40.11402,-88.22445,225.116,-1,-1,10,65.41203,1415909268,0.02734375,-0.02456665,-0.9989319,23.17571,-27.64868,7.610291,217.2965,220.3788,25,-0.05757381,-0.06808957,-0.01500372,-0.8239996,0.02752268,0.02531762,0.0006839471,0.0001097214,0.0004391248,-0.001127944,-0.0004724412,0.0001859322,172.17.160.76,10.175.81.193,5,stationary,2,2014-11-13 14:09:21.708,15,2014-11-13 13:57:29.604,0
2014-11-13 14:10:03.266,57292,1909.733,40.11402,-88.22445,225.116,-1,-1,10,65.41203,1415909268,0.02682495,-0.02545166,-0.9998322,22.96897,-27.92432,7.610291,217.2846,220.3669,25,-0.05863509,-0.06597183,-0.01605007,-0.8239864,0.02750811,0.02528289,-0.001444648,0.001165041,-0.0006089325,3.100165e-05,0.0004694044,0.0002787639,172.17.160.76,10.175.81.193,5,stationary,2,2014-11-13 14:09:21.708,15,2014-11-13 13:57:29.604,0
2014-11-13 14:10:03.299,57293,1909.767,40.11402,-88.22445,225.116,-1,-1,10,65.41203,1415909268,0.02774048,-0.02632141,-0.9983063,22.96897,-27.99323,7.275085,217.2714,220.3537,25,-0.05757062,-0.06809756,-0.01606525,-0.8239673,0.0275192,0.02525537,-0.001448295,0.001172438,0.0004524741,-0.001170281,-0.0001379419,-0.004863058,172.17.160.76,10.175.81.193,5,stationary,2,2014-11-13 14:09:21.708,15,2014-11-13 13:57:29.604,0
2014-11-13 14:10:03.332,57294,1909.8,40.11402,-88.22445,225.116,-1,-1,10,65.41203,1415909268,0.02806091,-0.02719116,-1.000854,23.58916,-27.64867,7.543213,217.272,220.3544,25,-0.05863509,-0.06597183,-0.01605007,-0.8239488,0.02746092,0.02529616,-0.0003832552,0.0001087858,0.0004427946,0.0002917925,-0.001027952,0.000996888,172.17.160.76,10.175.81.193,5,stationary,2,2014-11-13 14:09:21.708,15,2014-11-13 13:57:29.604,0
2014-11-13 14:10:03.366,57295,1909.833,40.11402,-88.22445,225.116,-1,-1,10,65.41203,1415909268,0.02600098,-0.02455139,-1.000381,23.72698,-27.44194,7.275146,217.2805,220.3629,25,-0.05756662,-0.06704295,-0.0171212,-0.82392,0.02745325,0.02534265,-0.0003774762,0.0001043774,-0.0006169128,0.0006199221,-0.001851228,-0.001552296,172.17.160.76,10.175.81.193,5,stationary,2,2014-11-13 14:09:21.708,15,2014-11-13 13:57:29.604,0
2014-11-13 14:10:03.399,57296,1909.867,40.11402,-88.22445,225.116,-1,-1,10,65.41203,1415909268,0.02749634,-0.02464294,-0.9984589,24.03709,-27.68312,7.643799,217.2981,220.3805,25,-0.05756423,-0.06385515,-0.01710442,-0.8239091,0.02743668,0.02534896,0.0006831467,-0.002014046,0.00042926,0.0009721842,0.0004744212,-0.0007890616,172.17.160.76,10.175.81.193,5,stationary,2,2014-11-13 14:09:21.708,15,2014-11-13 13:57:29.604,0
2014-11-13 14:10:03.432,57297,1909.9,40.11402,-88.22445,225.116,-1,-1,10,65.41203,1415909268,0.02767944,-0.02532959,-0.9997253,24.1749,-27.61421,7.710754,217.3157,220.3981,25,-0.05756582,-0.06598035,-0.0171156,-0.8239071,0.027499,0.02532258,-0.002509924,0.001167129,-0.00060362,0.001169289,0.0007684856,0.002109065,172.17.160.76,10.175.81.193,5,stationary,2,2014-11-13 14:09:21.708,15,2014-11-13 13:57:29.604,0
2014-11-13 14:10:03.466,57298,1909.933,40.11402,-88.22445,225.116,-1,-1,10,65.41203,1415909268,0.0276947,-0.02502441,-0.9980011,24.03708,-27.82094,7.710754,217.3235,220.4059,25,-0.05863269,-0.06704242,-0.0171172,-0.8239089,0.02745117,0.02531688,-0.0003829931,-0.0009517481,0.0004386452,-0.001346399,0.0009001084,-0.001917797,172.17.160.76,10.175.81.193,5,stationary,2,2014-11-13 14:09:21.708,15,2014-11-13 13:57:29.604,0
2014-11-13 14:10:03.499,57299,1909.967,40.11402,-88.22445,225.116,-1,-1,10,65.41203,1415909268,0.02806091,-0.02418518,-1.001404,24.00262,-28.26887,7.40918,217.3329,220.4153,25,-0.05756742,-0.06810555,-0.01712679,-0.8239115,0.02744927,0.02531971,0.001752042,-0.0009610066,-0.000630949,0.0002576793,0.0002925879,0.001301788,172.17.160.76,10.175.81.193,5,stationary,2,2014-11-13 14:09:21.708,15,2014-11-13 13:57:29.604,0
2014-11-13 14:10:03.532,57300,1910,40.11402,-88.22445,225.116,-1,-1,10,65.41203,1415909268,0.02697754,-0.02532959,-0.9985962,23.89926,-28.23441,7.174561,217.3383,220.4207,25,-0.05863908,-0.06702644,-0.01499413,-0.8239167,0.02745475,0.02531158,-0.0003829041,0.001185129,0.001513289,0.0006794397,-0.0005547705,0.0005694213,172.17.160.76,10.175.81.193,5,stationary,2,2014-11-13 14:09:21.708,15,2014-11-13 13:57:29.604,0
2014-11-13 14:10:03.566,57301,1910.033,40.11402,-88.22445,225.116,-1,-1,10,65.41203,1415909268,0.02734375,-0.02536011,-0.9990387,23.72699,-28.26887,7.208008,217.3371,220.4194,25,-0.05756662,-0.06704295,-0.0171212,-0.8239188,0.02744469,0.02530141,-0.001439747,0.001161229,-0.001667423,0.0005826785,-1.562423e-05,-0.002466544,172.17.160.76,10.175.81.193,5,stationary,2,2014-11-13 14:09:21.708,15,2014-11-13 13:57:29.604,0
2014-11-13 14:10:03.599,57302,1910.067,40.11402,-88.22445,225.116,-1,-1,10,65.41203,1415909268,0.02740479,-0.02638245,-0.9992981,23.65808,-27.92431,7.677246,217.3329,220.4153,25,-0.05969476,-0.06598727,-0.01816915,-0.8239364,0.02740884,0.02529601,-0.0003740543,0.001160137,-0.001671512,-0.001243076,0.0001010535,-0.0002986771,172.17.160.76,10.175.81.193,5,stationary,2,2014-11-13 14:09:21.708,15,2014-11-13 13:57:29.604,0
2014-11-13 14:10:03.632,57303,1910.1,40.11402,-88.22445,225.116,-1,-1,10,65.41203,1415909268,0.02868652,-0.02484131,-1.001678,23.55471,-27.75203,7.710754,217.3351,220.4175,25,-0.05863189,-0.06597982,-0.01711161,-0.8239548,0.02746272,0.02527815,-0.001441173,9.802454e-05,-0.001673182,0.0005188641,0.0006019944,0.00154661,172.17.160.76,10.175.81.193,5,stationary,2,2014-11-13 14:09:21.708,15,2014-11-13 13:57:29.604,0
2014-11-13 14:10:03.666,57304,1910.133,40.11402,-88.22445,225.116,-1,-1,10,65.41203,1415909268,0.02668762,-0.02552795,-0.9979553,23.7959,-27.92431,7.744263,217.3371,220.4195,25,-0.05650056,-0.06704348,-0.01712519,-0.8239641,0.02744826,0.02528328,0.0006856334,-0.002020808,-0.0006309713,-0.001053593,0.0002256595,-0.0008640113,172.17.160.76,10.175.81.193,5,stationary,2,2014-11-13 14:09:21.708,15,2014-11-13 13:57:29.604,0
2014-11-13 14:10:03.699,57305,1910.167,40.11402,-88.22445,225.116,-1,-1,10,65.41203,1415909268,0.02915955,-0.02455139,-1.001404,23.4858,-27.68313,7.509583,217.3449,220.4273,25,-0.05863668,-0.06809703,-0.01606126,-0.8239636,0.0274586,0.02530299,0.000682527,0.0001236116,0.001505193,-0.0003925256,0.0002148452,0.001500319,172.17.160.76,10.175.81.193,5,stationary,2,2014-11-13 14:09:21.708,15,2014-11-13 13:57:29.604,0
2014-11-13 14:10:03.732,57306,1910.2,40.11402,-88.22445,225.116,-1,-1,10,65.41203,1415909268,0.02688599,-0.02580261,-0.9972382,23.65808,-27.64867,7.274902,217.3555,220.4379,25,-0.05863189,-0.06597982,-0.01711161,-0.8239681,0.02744691,0.02530771,-0.0003783903,-0.0009548109,-0.0006196134,0.001907971,-0.0005891564,0.0004629227,172.17.160.76,10.175.81.193,5,stationary,2,2014-11-13 14:09:21.708,15,2014-11-13 13:57:29.604,0
2014-11-13 14:10:03.766,57307,1910.233,40.11402,-88.22445,225.116,-1,-1,10,65.41203,1415909268,0.03044128,-0.02384949,-0.9985046,23.55472,-28.09659,7.040344,217.3537,220.4361,25,-0.05650615,-0.0659649,-0.01499653,-0.8239712,0.02746757,0.02531933,0.0006825628,0.001185525,0.00151055,0.0008497401,0.0002616924,0.0004162854,172.17.160.76,10.175.81.193,5,stationary,2,2014-11-13 14:09:21.708,15,2014-11-13 13:57:29.604,0
2014-11-13 14:10:03.799,57308,1910.267,40.11402,-88.22445,225.116,-1,-1,10,65.41203,1415909268,0.02993774,-0.02566528,-1.000946,23.79591,-28.33778,7.207947,217.35,220.4324,25,-0.05863588,-0.06703443,-0.01605567,-0.8239549,0.02753554,0.02529628,0.0006836797,-0.0009476242,0.000437732,0.00168207,0.0001928732,0.001361045,172.17.160.76,10.175.81.193,5,stationary,2,2014-11-13 14:09:21.708,15,2014-11-13 13:57:29.604,0
2014-11-13 14:10:03.832,57309,1910.3,40.11402,-88.22445,225.116,-1,-1,10,65.41203,1415909268,0.02862549,-0.02589417,-0.9968872,23.48582,-28.1655,7.57666,217.3418,220.4242,25,-0.05863109,-0.06491721,-0.01710602,-0.8239651,0.02759209,0.02528882,-0.001443482,-0.0009511686,-0.0006136408,0.0004811503,-0.0004554539,-0.003507878,172.17.160.76,10.175.81.193,5,stationary,2,2014-11-13 14:09:21.708,15,2014-11-13 13:57:29.604,0
2014-11-13 14:10:03.866,57310,1910.333,40.11402,-88.22445,225.116,-1,-1,10,65.41203,1415909268,0.03012085,-0.02561951,-0.9991455,23.34799,-27.75204,7.710693,217.3413,220.4236,25,-0.05756662,-0.06704295,-0.0171212,-0.8239671,0.02763015,0.02529269,-0.0003759991,0.001173355,-0.0006065184,0.001007686,-0.0006041741,0.002411384,172.17.160.76,10.175.81.193,5,stationary,2,2014-11-13 14:09:21.708,15,2014-11-13 13:57:29.604,0
2014-11-13 14:10:03.898,57311,1910.367,40.11402,-88.22445,225.116,-1,-1,10,65.41203,1415909268,0.02662659,-0.02432251,-1.000031,23.45137,-27.51086,7.543152,217.3488,220.4312,25,-0.05756822,-0.06490976,-0.01604847,-0.8239861,0.02760481,0.02532839,-0.0003771468,0.0001101038,-0.0006122355,-0.001972947,-0.001194095,-0.0008694596,172.17.160.76,10.175.81.193,5,stationary,2,2014-11-13 14:09:21.708,15,2014-11-13 13:57:29.604,0
2014-11-13 14:10:03.932,57312,1910.4,40.11402,-88.22445,225.116,-1,-1,10,65.41203,1415909268,0.02861023,-0.02471924,-0.9975586,23.58919,-27.57977,7.274902,217.3602,220.4425,25,-0.05756582,-0.06598035,-0.0171156,-0.823976,0.02753665,0.02533218,0.0006869337,0.002241929,0.0004563853,-0.0005162803,0.0001066926,0.00320642,172.17.160.76,10.175.81.193,5,stationary,2,2014-11-13 14:09:21.708,15,2014-11-13 13:57:29.604,0
2014-11-13 14:10:03.966,57313,1910.433,40.11402,-88.22445,225.116,-1,-1,10,65.41203,1415909268,0.02679443,-0.02609253,-1.012451,23.62365,-27.47639,7.308411,217.366,220.4483,25,-0.05756902,-0.06597236,-0.01605407,-0.8239717,0.0275921,0.0253278,0.001749105,-0.002009371,0.0004298438,0.000114948,-0.0001113068,-0.001403152,172.17.160.76,10.175.81.193,5,stationary,2,2014-11-13 14:09:21.708,15,2014-11-13 13:57:29.604,0
2014-11-13 14:10:03.999,57314,1910.467,40.11402,-88.22445,225.116,-1,-1,10,65.41203,1415909268,0.02455139,-0.0272522,-0.9950104,23.69255,-27.54531,7.308411,217.3791,220.4615,25,-0.05436524,-0.05853575,-0.0160269,-0.8239785,0.02755306,0.02534384,0.0006866631,-0.004139038,-0.0006366815,1.664508e-05,-0.0001563058,-0.004088029,172.17.160.76,10.175.81.193,5,stationary,2,2014-11-13 14:09:21.708,15,2014-11-13 13:57:29.604,0
2014-11-13 14:10:04.032,57315,1910.5,40.11402,-88.22445,225.116,-1,-1,10,65.41203,1415909268,0.0272522,-0.02420044,-1.007141,23.62365,-27.75204,6.90625,217.3816,220.464,25,-0.05970594,-0.06808851,-0.01499573,-0.8239713,0.02740506,0.02546135,0.0006891217,-0.0009525862,-0.0006199656,-0.005099653,-0.001091691,0.002474332,172.17.160.76,10.175.81.193,5,stationary,2,2014-11-13 14:09:21.708,15,2014-11-13 13:57:29.604,0
2014-11-13 14:10:04.065,57316,1910.533,40.11402,-88.22445,225.116,-1,-1,10,65.41203,1415909268,0.03274536,-0.02337646,-0.993042,23.89928,-28.0966,6.90625,217.3873,220.4697,25,-0.05969635,-0.06385408,-0.01709643,-0.8239979,0.0274993,0.02537895,0.0006900141,0.001172667,-0.0006089173,0.002282921,0.002365974,0.004549035,172.17.160.76,10.175.81.193,5,stationary,2,2014-11-13 14:09:21.708,15,2014-11-13 13:57:29.604,0
2014-11-13 14:10:04.099,57317,1910.567,40.11402,-88.22445,225.116,-1,-1,10,65.41203,1415909268,0.02536011,-0.02720642,-1.000397,23.76146,-28.64788,6.571106,217.3764,220.4588,25,-0.05649896,-0.06491828,-0.01711401,-0.82401,0.027736,0.02532488,0.001756341,0.002235456,-0.0006074188,0.005021816,0.001945704,0.006252856,172.17.160.76,10.175.81.193,5,stationary,2,2014-11-13 14:09:21.708,15,2014-11-13 13:57:29.604,0
2014-11-13 14:10:04.132,57318,1910.6,40.11402,-88.22445,225.116,-1,-1,10,65.41203,1415909268,0.02458191,-0.02792358,-1.002151,23.83037,-28.37224,7.040283,217.3708,220.4531,25,-0.05756982,-0.06703496,-0.01605966,-0.8240046,0.02761309,0.02542874,0.0006846535,-0.000945228,0.000441204,-0.005170234,-0.004237085,0.003034016,172.17.160.76,10.175.81.193,5,stationary,2,2014-11-13 14:09:21.708,15,2014-11-13 13:57:29.604,0
2014-11-13 14:10:04.166,57319,1910.633,40.11402,-88.22445,225.116,-1,-1,10,65.41203,1415909268,0.03210449,-0.02297974,-0.9954834,23.79592,-28.26887,7.408997,217.37,220.4524,25,-0.05970195,-0.06703389,-0.01605167,-0.8239925,0.02750417,0.02551107,0.00068691,-0.00094266,0.000443156,-0.002909842,-0.002415276,-0.002854972,172.17.160.76,10.175.81.193,5,stationary,2,2014-11-13 14:09:21.708,15,2014-11-13 13:57:29.604,0
2014-11-13 14:10:04.199,57320,1910.667,40.11402,-88.22445,225.116,-1,-1,10,65.41203,1415909268,0.03067017,-0.02572632,-1.003342,23.86483,-27.71758,7.610046,217.3761,220.4585,25,-0.05756822,-0.06916815,-0.01713238,-0.8239918,0.02774736,0.02534804,0.0006889726,-0.0009498109,-0.0006185836,0.004400128,0.001907828,0.001521729,172.17.160.76,10.175.81.193,5,stationary,2,2014-11-13 14:09:21.708,15,2014-11-13 13:57:29.604,0
2014-11-13 14:10:04.232,57321,1910.7,40.11402,-88.22445,225.116,-1,-1,10,65.41203,1415909268,0.02363586,-0.02850342,-0.996994,23.89928,-27.88985,7.576538,217.3808,220.4631,25,-0.05863029,-0.06385461,-0.01710042,-0.8240023,0.02786434,0.02532918,-0.0003759022,0.001176101,-0.0006035204,-0.0004164973,-0.0001251854,-0.001853237,172.17.160.76,10.175.81.193,5,stationary,2,2014-11-13 14:09:21.708,15,2014-11-13 13:57:29.604,0
2014-11-13 14:10:04.266,57322,1910.733,40.11402,-88.22445,225.116,-1,-1,10,65.41203,1415909268,0.02629089,-0.02552795,-0.9978638,23.89928,-27.75204,7.911743,217.3913,220.4737,25,-0.05863189,-0.06597982,-0.01711161,-0.823988,0.02759085,0.02552723,-0.0003793986,0.0001196219,0.0004523556,-0.005651478,-0.004199667,-0.001896467,172.17.160.76,10.175.81.193,5,stationary,2,2014-11-13 14:09:21.708,15,2014-11-13 13:57:29.604,0
2014-11-13 14:10:04.299,57323,1910.767,40.11402,-88.22445,225.116,-1,-1,10,65.41203,1415909268,0.02949524,-0.02389526,-0.9954376,23.93374,-27.64867,8.012268,217.4094,220.4918,25,-0.05863269,-0.06704242,-0.0171172,-0.8239934,0.02754154,0.02555383,-0.0003794631,0.0001191029,0.0004523012,-0.001238171,2.309251e-05,0.001430629,172.17.160.76,10.175.81.193,5,stationary,2,2014-11-13 14:09:21.708,15,2014-11-13 13:57:29.604,0
2014-11-13 14:10:04.332,57324,1910.8,40.11402,-88.22445,225.116,-1,-1,10,65.41203,1415909268,0.0269165,-0.02523804,-0.9987183,23.69255,-27.5453,7.777649,217.4258,220.5082,25,-0.05863588,-0.06703443,-0.01605567,-0.8239985,0.027814,0.02542434,-0.000375473,0.0001153346,-0.0006076164,0.002945035,0.001327975,-3.845376e-05,172.17.160.76,10.175.81.193,5,stationary,2,2014-11-13 14:09:21.708,15,2014-11-13 13:57:29.604,0
2014-11-13 14:10:04.366,57325,1910.833,40.11402,-88.22445,225.116,-1,-1,10,65.41203,1415909268,0.0239563,-0.02792358,-0.9962769,23.79592,-27.8554,7.542969,217.4289,220.5113,25,-0.05650216,-0.06491029,-0.01605247,-0.8239908,0.02779856,0.02543987,-0.0003782176,0.001185512,0.000459413,-0.001586649,-0.0004417821,0.003089632,172.17.160.76,10.175.81.193,5,stationary,2,2014-11-13 14:09:21.708,15,2014-11-13 13:57:29.604,0
2014-11-13 14:10:04.399,57326,1910.867,40.11402,-88.22445,225.116,-1,-1,10,65.41203,1415909268,0.02693176,-0.02523804,-1.001175,23.48583,-27.95877,7.107361,217.4252,220.5075,25,-0.05863588,-0.06703443,-0.01605567,-0.8239901,0.0277105,0.02551026,0.001753923,0.001183665,0.0004513789,-0.00374164,-0.002416095,0.003013989,172.17.160.76,10.175.81.193,5,stationary,2,2014-11-13 14:09:21.708,15,2014-11-13 13:57:29.604,0
2014-11-13 14:10:04.432,57327,1910.9,40.11402,-88.22445,225.116,-1,-1,10,65.41203,1415909268,0.03082275,-0.02375793,-0.9971924,23.27909,-28.30333,6.772217,217.4168,220.4991,25,-0.05757222,-0.06596437,-0.01499253,-0.8239523,0.02758954,0.02557045,-0.0003791289,0.000120939,0.0004536713,-0.0006452593,0.0003296286,-0.001882276,172.17.160.76,10.175.81.193,5,stationary,2,2014-11-13 14:09:21.708,15,2014-11-13 13:57:29.604,0
2014-11-13 14:10:04.466,57328,1910.933,40.11402,-88.22445,225.116,-1,-1,10,65.41203,1415909268,0.02682495,-0.02555847,-0.9965973,23.17573,-28.19997,6.872803,217.4019,220.4843,25,-0.05756742,-0.06810555,-0.01712679,-0.8239484,0.02772734,0.02550504,-0.0003814216,-0.002003862,0.0004423562,0.003107987,0.001744339,0.002098128,172.17.160.76,10.175.81.193,5,stationary,2,2014-11-13 14:09:21.708,15,2014-11-13 13:57:29.604,0
2014-11-13 14:10:04.499,57329,1910.967,40.11402,-88.22445,225.116,-1,-1,10,65.41203,1415909268,0.02619934,-0.02813721,-1.000671,23.62365,-28.51006,7.174377,217.3898,220.4721,25,-0.05543609,-0.06491082,-0.01605646,-0.8239667,0.02772465,0.02544882,-0.0003732707,0.0001082986,-0.001668013,-0.003038662,0.0003911456,0.003869654,172.17.160.76,10.175.81.193,5,stationary,2,2014-11-13 14:09:21.708,15,2014-11-13 13:57:29.604,0
2014-11-13 14:10:04.532,57330,1911,40.11402,-88.22445,225.116,-1,-1,10,65.41203,1415909268,0.02749634,-0.02630615,-0.9957581,23.86483,-28.19997,7.342041,217.3904,220.4728,25,-0.05756662,-0.06704295,-0.0171212,-0.8239772,0.02765648,0.02553204,-0.000375609,0.00117804,-0.0006009605,-0.001520899,-0.001265167,-0.00205099,172.17.160.76,10.175.81.193,5,stationary,2,2014-11-13 14:09:21.708,15,2014-11-13 13:57:29.604,0
2014-11-13 14:10:04.566,57331,1911.033,40.11402,-88.22445,225.116,-1,-1,10,65.41203,1415909268,0.02964783,-0.02391052,-1.00116,24.31276,-27.75205,7.308533,217.4037,220.486,25,-0.05970195,-0.06703389,-0.01605167,-0.8239793,0.02761011,0.02550269,0.0006819275,-0.0009323668,0.001506802,-0.0003149126,0.001009572,-0.001133433,172.17.160.76,10.175.81.193,5,stationary,2,2014-11-13 14:09:21.708,15,2014-11-13 13:57:29.604,0
2014-11-13 14:10:04.599,57332,1911.067,40.11402,-88.22445,225.116,-1,-1,10,65.41203,1415909268,0.02655029,-0.02713013,-0.9994049,24.2783,-27.57979,7.476074,217.4285,220.5109,25,-0.05863509,-0.06597183,-0.01605007,-0.8239824,0.02768363,0.02545143,-0.0003781107,-0.0009476501,-0.0006123575,0.0019767,0.00153816,-0.001866581,172.17.160.76,10.175.81.193,5,stationary,2,2014-11-13 14:09:21.708,15,2014-11-13 13:57:29.604,0
2014-11-13 14:10:04.632,57333,1911.1,40.11402,-88.22445,225.116,-1,-1,10,65.41203,1415909268,0.02586365,-0.02600098,-0.9987335,24.48503,-27.85542,7.610168,217.4402,220.5226,25,-0.05970514,-0.06702591,-0.01499014,-0.8239849,0.02769055,0.02543648,-0.0003776511,-0.0009446525,-0.0006106995,-0.0005631872,-0.0004909427,-0.001484923,172.17.160.76,10.175.81.193,5,stationary,2,2014-11-13 14:09:21.708,15,2014-11-13 13:57:29.604,0
2014-11-13 14:10:04.666,57334,1911.133,40.11402,-88.22445,225.116,-1,-1,10,65.41203,1415909268,0.02772522,-0.02563477,-0.9999084,24.38166,-27.82097,7.107422,217.4669,220.5492,25,-0.05970115,-0.06597129,-0.01604608,-0.8239741,0.02763876,0.0254266,0.0006850466,-0.0009376418,0.0004467839,-0.001762664,-0.0005771139,0.000561438,172.17.160.76,10.175.81.193,5,stationary,2,2014-11-13 14:09:21.708,15,2014-11-13 13:57:29.604,0
2014-11-13 14:10:04.699,57335,1911.167,40.11402,-88.22445,225.116,-1,-1,10,65.41203,1415909268,0.0243988,-0.02676392,-0.9957886,24.24384,-27.75207,7.375549,217.4869,220.5693,25,-0.05756902,-0.06597236,-0.01605407,-0.8239805,0.0275791,0.02541295,-0.0003806468,0.0001246999,0.0004562466,-0.0006959743,-0.001231626,-0.002213668,172.17.160.76,10.175.81.193,5,stationary,2,2014-11-13 14:09:21.708,15,2014-11-13 13:57:29.604,0
2014-11-13 14:10:04.732,57336,1911.2,40.11402,-88.22445,225.116,-1,-1,10,65.41203,1415909268,0.03005981,-0.02398682,-1.006241,24.03711,-27.75207,7.37561,217.4934,220.5758,25,-0.05863189,-0.06597982,-0.01711161,-0.8239703,0.02744633,0.02548996,0.0006836888,-0.002002139,0.0004409416,0.002641102,0.0004627862,-0.001357484,172.17.160.76,10.175.81.193,5,stationary,2,2014-11-13 14:09:21.708,15,2014-11-13 13:57:29.604,0
2014-11-13 14:10:04.765,57337,1911.233,40.11402,-88.22445,225.116,-1,-1,10,65.41203,1415909268,0.02798462,-0.02493286,-0.9955597,24.14048,-27.51088,7.744324,217.5078,220.5902,25,-0.05756902,-0.06597236,-0.01605407,-0.8239691,0.02753994,0.02543167,-0.0003780392,0.0001158954,-0.0006055009,0.004607458,0.00106064,-0.003403251,172.17.160.76,10.175.81.193,5,stationary,2,2014-11-13 14:09:21.708,15,2014-11-13 13:57:29.604,0
2014-11-13 14:10:04.799,57338,1911.267,40.11402,-88.22445,225.116,-1,-1,10,65.41203,1415909268,-0.03240967,-0.02655029,-0.9990997,23.86483,-27.44197,7.677307,217.5217,220.6041,25,-0.05593544,-0.06046867,0.1506215,-0.8239253,0.0275947,0.0253705,-0.0004067064,0.0001909219,0.008950076,-0.008051067,-0.0007705324,0.001296501,172.17.160.76,10.175.81.193,5,stationary,2,2014-11-13 14:09:21.708,15,2014-11-13 13:57:29.604,0
2014-11-13 14:10:04.833,57339,1911.3,40.11402,-88.22445,225.116,-1,-1,10,65.41203,1415909268,0.07751465,-0.02507019,-0.9969788,23.79592,-27.5798,7.811462,217.5267,220.6091,25,-0.0564188,-0.06458326,0.3098239,-0.821736,0.02554508,0.02545354,0.002318263,0.005619983,0.1671295,-0.0579437,-0.001099504,0.0002501925,172.17.160.76,10.175.81.193,5,stationary,2,2014-11-13 14:09:21.708,15,2014-11-13 13:57:29.604,0
2014-11-13 14:10:04.866,57340,1911.333,40.11402,-88.22445,225.116,-1,-1,10,65.41203,1415909268,0.03108215,-0.0151062,-0.9937134,23.38246,-27.85544,8.146606,217.2506,220.333,25,-0.06037733,-0.06694548,-0.1455495,-0.8135093,0.02535976,0.02571505,-0.003266169,-0.003861001,-0.104639,0.02985764,0.02293512,-0.001460765,172.17.160.76,10.175.81.193,5,stationary,2,2014-11-13 14:09:21.708,15,2014-11-13 13:57:29.604,0
2014-11-13 14:10:04.899,57341,1911.367,40.11402,-88.22445,225.116,-1,-1,10,65.41203,1415909268,0.02238464,-0.03155518,-1.003311,23.24464,-27.92435,8.012512,217.0129,220.0952,25,-0.06298083,-0.08492874,0.006157495,-0.8176663,0.02544909,0.02557326,-1.553686e-05,-0.00186556,-0.1216245,0.02363425,0.003780917,0.001622877,172.17.160.76,10.175.81.193,5,stationary,2,2014-11-13 14:09:21.708,15,2014-11-13 13:57:29.604,0
2014-11-13 14:10:04.932,57342,1911.4,40.11402,-88.22445,225.116,-1,-1,10,65.41203,1415909268,6.103516e-05,-0.02189636,-0.9980011,22.65891,-27.54534,7.710876,216.738,219.8204,25,-0.06432892,-0.08528773,0.09957106,-0.8161611,0.02503337,0.02551093,-0.007172982,-0.02125336,0.1256254,-0.0138074,-0.0009810912,0.001711251,172.17.160.76,10.175.81.193,5,stationary,2,2014-11-13 14:09:21.708,15,2014-11-13 13:57:29.604,0
2014-11-13 14:10:04.966,57343,1911.433,40.11402,-88.22445,225.116,-1,-1,10,65.41203,1415909268,0.02616882,-0.01190186,-0.9985046,22.90009,-27.44197,7.543274,217.0638,220.1461,25,-0.0598162,-0.06568367,0.02216922,-0.8138784,0.02465472,0.02544088,-0.006035899,-0.008651354,0.1055211,-0.02458321,0.003541773,0.001371486,172.17.160.76,10.175.81.193,5,stationary,2,2014-11-13 14:09:21.708,15,2014-11-13 13:57:29.604,0
2014-11-13 14:10:04.999,57344,1911.467,40.11402,-88.22445,225.116,-1,-1,10,65.41203,1415909268,0.007156372,-0.05632019,-0.996994,22.76227,-27.16633,7.543274,217.1077,220.19,25,-0.05680576,-0.07266808,0.08262563,-0.8119348,0.0250016,0.02560661,0.002664713,0.007946003,0.05250169,-0.03121638,-0.01394697,0.004105231,172.17.160.76,10.175.81.193,5,stationary,2,2014-11-13 14:09:21.708,15,2014-11-13 13:57:29.604,0
2014-11-13 14:10:05.032,57345,1911.5,40.11402,-88.22445,225.116,-1,-1,10,65.41203,1415909268,-0.01586914,-0.02679443,-1.000626,23.27909,-27.33861,7.509766,217.4621,220.5444,25,-0.05537511,-0.06452786,0.3172507,-0.808668,0.02480769,0.02568253,0.001384125,-3.542117e-05,0.1214607,-0.02209616,-0.03772056,0.001468341,172.17.160.76,10.175.81.193,5,stationary,2,2014-11-13 14:09:21.708,15,2014-11-13 13:57:29.604,0
2014-11-13 14:10:05.066,57346,1911.533,40.11402,-88.22445,225.116,-1,-1,10,65.41203,1415909268,-0.03153992,0.01759338,-0.9996796,23.07236,-27.68315,7.509766,216.9536,220.036,25,-0.05631547,-0.06324156,0.6293367,-0.7948547,0.02335371,0.02604607,-0.0008574876,-0.008812175,0.5088638,-0.02174149,0.04916019,-0.0003676321,172.17.160.76,10.175.81.193,5,stationary,2,2014-11-13 14:09:21.708,15,2014-11-13 13:57:29.604,0
2014-11-13 14:10:05.099,57347,1911.567,40.11402,-88.22445,225.116,-1,-1,10,65.41203,1415909268,0.02508545,-0.03079224,-1.001236,22.93455,-28.44117,7.777893,216.0478,219.1302,25,-0.05323233,-0.04592195,0.6718756,-0.7825695,0.02191848,0.02536795,0.001931653,0.002836571,0.6458459,-0.05344959,0.04295861,-0.0002414376,172.17.160.76,10.175.81.193,5,stationary,2,2014-11-13 14:09:21.708,15,2014-11-13 13:57:29.604,0
2014-11-13 14:10:05.132,57348,1911.6,40.11402,-88.22445,225.116,-1,-1,10,65.41203,1415909268,0.09509277,-0.06895447,-1.001083,22.52108,-28.51008,8.113098,215.4898,218.5722,25,-0.05882284,-0.06017945,0.04767005,-0.7575459,0.0215277,0.02597424,0.004578326,0.004747937,0.4760107,0.03545754,-0.01103124,-0.003513892,172.17.160.76,10.175.81.193,5,stationary,2,2014-11-13 14:09:21.708,15,2014-11-13 13:57:29.604,0
2014-11-13 14:10:05.166,57349,1911.633,40.11402,-88.22445,225.116,-1,-1,10,65.41203,1415909268,0.01296997,0.01037598,-1.002945,22.24544,-28.44117,8.448242,215.0622,218.1445,25,-0.08795489,-0.1529789,0.1396394,-0.7526553,0.02156347,0.02613466,0.002695597,0.004653198,0.03974807,0.02603773,0.007546481,0.00189803,172.17.160.76,10.175.81.193,5,stationary,2,2014-11-13 14:09:21.708,15,2014-11-13 13:57:29.604,0
2014-11-13 14:10:05.199,57350,1911.667,40.11402,-88.22445,225.116,-1,-1,10,65.41203,1415909268,-0.1576385,-0.01750183,-1.047318,22.3488,-28.40671,8.079529,215.1316,218.214,25,-0.1650348,0.1156174,0.668899,-0.748051,0.01928841,0.02535458,-0.0587295,-0.1139687,0.2282971,-0.004357919,0.006461487,-0.007831585,172.17.160.76,10.175.81.193,5,stationary,2,2014-11-13 14:09:21.708,15,2014-11-13 13:57:29.604,0
2014-11-13 14:10:05.232,57351,1911.7,40.11402,-88.22445,225.116,-1,-1,10,65.41203,1415909268,-0.1515961,0.1335449,-1.009445,22.07316,-28.88908,7.677246,214.5073,217.5897,25,-0.1867225,0.147953,1.152125,-0.7387239,0.01987158,0.02375401,-0.1067878,0.1816974,0.6854098,-0.1088234,0.05541376,-0.02684668,172.17.160.76,10.175.81.193,5,stationary,2,2014-11-13 14:09:21.708,15,2014-11-13 13:57:29.604,0
2014-11-13 14:10:05.266,57352,1911.733,40.11402,-88.22445,225.116,-1,-1,10,65.41203,1415909268,0.02041626,-0.06323242,-1.007416,21.14287,-29.06136,7.174561,213.1581,216.2405,25,-0.08281712,0.340409,0.3290392,-0.6859413,0.02964676,0.0207958,-0.02896093,0.3605053,0.7295825,-0.03328286,0.05089989,0.02778682,172.17.160.76,10.175.81.193,5,stationary,2,2014-11-13 14:09:21.708,15,2014-11-13 13:57:29.604,0
2014-11-13 14:10:05.299,57353,1911.767,40.11402,-88.22445,225.116,-1,-1,10,65.41203,1415909268,0.1052704,-0.05944824,-0.9885254,20.62605,-29.50928,7.40918,212.0492,215.1316,25,-0.08355562,0.2693271,0.2023512,-0.679415,0.04133199,0.02037071,-0.02168079,0.4120504,0.09612179,-0.01732484,0.03419376,0.006156064,172.17.160.76,10.175.81.193,5,unknown,0,2014-11-13 14:10:05.225,15,2014-11-13 13:57:29.604,0
2014-11-13 14:10:05.332,57354,1911.8,40.11402,-88.22445,225.116,-1,-1,10,65.41203,1415909268,0.00138855,0.1089325,-1.062439,20.90169,-29.16473,7.610291,212.4902,215.5726,25,-0.172751,0.3488736,1.165868,-0.6715364,0.05371848,0.01922543,-0.06016819,0.2632968,0.09442096,0.1133705,-0.02202026,-0.008981763,172.17.160.76,10.175.81.193,5,unknown,0,2014-11-13 14:10:05.225,15,2014-11-13 13:57:29.604,0
2014-11-13 14:10:05.366,57355,1911.833,40.11402,-88.22445,225.116,-1,-1,10,65.41203,1415909268,0.09684753,-0.06690979,-0.9550781,21.34961,-29.61266,7.911926,212.7355,215.8179,25,-0.2155728,1.371364,2.192559,-0.64135,0.06643117,0.0180799,-0.1536983,0.8785245,1.924822,-0.06629518,0.2126742,-0.03947819,172.17.160.76,10.175.81.193,5,unknown,0,2014-11-13 14:10:05.225,15,2014-11-13 13:57:29.604,0
2014-11-13 14:10:05.399,57356,1911.867,40.11402,-88.22445,225.116,-1,-1,10,65.41203,1415909268,0.296524,-0.3967896,-0.988266,21.52189,-29.64711,7.744385,212.6934,215.7758,25,-0.2060128,1.567319,0.8401653,-0.5953559,0.0904758,0.01806534,-0.157325,1.437446,2.209072,0.006509863,-0.04884543,0.04066923,172.17.160.76,10.175.81.193,5,unknown,0,2014-11-13 14:10:05.225,15,2014-11-13 13:57:29.604,0
2014-11-13 14:10:05.432,57357,1911.9,40.11402,-88.22445,225.116,-1,-1,10,65.41203,1415909268,0.3711243,-0.05993652,-0.9395447,21.65971,-29.99167,7.610291,212.2971,215.3795,25,-0.3126831,2.34256,1.059066,-0.5569054,0.1517808,0.01647073,-0.1244992,1.5588,0.5462458,0.1706907,-0.2174625,-0.07095686,172.17.160.76,10.175.81.193,5,unknown,0,2014-11-13 14:10:05.225,15,2014-11-13 13:57:29.604,0
2014-11-13 14:10:05.466,57358,1911.933,40.11402,-88.22445,225.116,-1,-1,10,65.41203,1415909268,0.2176208,-0.06707764,-0.896698,22.24545,-30.09502,7.241638,212.5327,215.615,25,-0.4713039,1.229584,1.409396,-0.5263838,0.2174361,0.01497715,-0.343719,2.200959,1.288178,0.1554217,-0.04495994,0.03679957,172.17.160.76,10.175.81.193,5,unknown,0,2014-11-13 14:10:05.225,15,2014-11-13 13:57:29.604,0
2014-11-13 14:10:05.499,57359,1911.967,40.11402,-88.22445,225.116,-1,-1,10,65.41203,1415909268,0.6027679,-0.3262177,-0.8859406,23.31356,-30.68077,7.342163,212.5085,215.5909,25,-0.2488189,-0.1239041,-0.2428001,-0.4707539,0.263811,0.01327854,-0.3361473,0.3626542,1.137292,-0.05913951,-0.01563725,0.07333508,172.17.160.76,10.175.81.193,5,unknown,0,2014-11-13 14:10:05.225,15,2014-11-13 13:57:29.604,0
2014-11-13 14:10:05.532,57360,1912,40.11402,-88.22445,225.116,-1,-1,10,65.41203,1415909268,0.3635254,0.3628387,-0.9333496,23.48583,-30.92195,7.777893,215.081,218.1634,25,-0.06819264,-0.2555644,-0.7834027,-0.4659424,0.2653567,0.008430742,-0.1487133,-0.1926908,-0.354532,0.3405237,-0.317787,0.07902417,172.17.160.76,10.175.81.193,5,unknown,0,2014-11-13 14:10:05.225,15,2014-11-13 13:57:29.604,0
2014-11-13 14:10:05.566,57361,1912.033,40.11402,-88.22445,225.116,-1,-1,10,65.41203,1415909268,0.2322083,0.03315735,-1.0103,24.79513,-31.1976,8.180176,216.4043,219.4866,25,-0.0879754,0.913794,-0.2888891,-0.5228317,0.2696548,0.0008839442,0.09682588,0.6276516,-1.321326,-0.559871,0.06014908,-0.3487748,172.17.160.76,10.175.81.193,5,unknown,0,2014-11-13 14:10:05.225,15,2014-11-13 13:57:29.604,0
2014-11-13 14:10:05.599,57362,1912.067,40.11402,-88.22445,225.116,-1,-1,10,65.41203,1415909268,0.2696228,0.02185059,-0.9735565,25.65651,-30.33622,8.280762,218.4066,221.4889,25,-0.3393035,0.3570191,0.5434449,-0.5224099,0.2925366,-0.00337839,-0.2152892,0.6437197,0.3708678,-0.07610002,0.1209045,0.03728295,172.17.160.76,10.175.81.193,5,unknown,0,2014-11-13 14:10:05.225,15,2014-11-13 13:57:29.604,0
2014-11-13 14:10:05.633,57363,1912.1,40.11402,-88.22445,225.116,-1,-1,10,65.41203,1415909268,0.5107269,0.1683807,-1.020172,26.51788,-30.23285,8.180176,219.1509,222.2332,25,-0.4522327,1.498142,0.80994,-0.5039442,0.3087211,-0.006203045,-0.3002892,0.8277592,0.6768004,0.02784569,0.02613037,-0.04515917,172.17.160.76,10.175.81.193,5,unknown,0,2014-11-13 14:10:05.225,15,2014-11-13 13:57:29.604,0
2014-11-13 14:10:05.666,57364,1912.133,40.11402,-88.22445,225.116,-1,-1,10,65.41203,1415909268,0.2024689,-0.08268738,-0.8760834,27.13807,-29.95721,8.783447,219.7125,222.7948,25,-0.8823889,1.935644,1.452867,-0.4703727,0.3711505,-0.009838942,-0.6709429,2.642779,1.381955,0.07211363,-0.05421134,-0.03078091,172.17.160.76,10.175.81.193,5,unknown,0,2014-11-13 14:10:05.225,15,2014-11-13 13:57:29.604,0
2014-11-13 14:10:05.699,57365,1912.167,40.11402,-88.22445,225.116,-1,-1,10,65.41203,1415909268,0.3371582,0.06707764,-0.9554596,28.24064,-30.02612,9.587891,219.7132,222.7956,25,-0.1924981,0.3300381,-0.06759902,-0.4143661,0.4459564,-0.01598336,-0.3806396,1.039041,0.5083765,-0.2392645,-0.1037207,0.004301934,172.17.160.76,10.175.81.193,5,unknown,0,2014-11-13 14:10:05.225,15,2014-11-13 13:57:29.604,0
2014-11-13 14:10:05.732,57366,1912.2,40.11402,-88.22445,225.116,-1,-1,10,65.41203,1415909268,0.3241882,-0.05502319,-1.047974,29.03312,-29.78493,9.956543,220.0041,223.0865,25,-0.2365952,0.5199944,-0.2437011,-0.4114353,0.4629428,-0.01959522,-0.04530591,0.5886663,-0.1565541,-0.1093392,0.04748367,-0.06088922,172.17.160.76,10.175.81.193,5,unknown,0,2014-11-13 14:10:05.225,15,2014-11-13 13:57:29.604,0
2014-11-13 14:10:05.766,57367,1912.233,40.11402,-88.22445,225.116,-1,-1,10,65.41203,1415909268,0.2858429,0.01496887,-1.027817,29.99786,-29.85384,10.29175,220.5732,223.6555,25,-0.9148166,-1.144716,-0.2435589,-0.4154303,0.4781132,-0.02766198,-0.4344609,0.001305667,-0.2908753,-0.1357405,-0.08268165,-0.1604487,172.17.160.76,10.175.81.193,5,unknown,0,2014-11-13 14:10:05.225,15,2014-11-13 13:57:29.604,0
2014-11-13 14:10:05.799,57368,1912.267,40.11402,-88.22445,225.116,-1,-1,10,65.41203,1415909268,0.5116119,0.07383728,-1.366302,29.54994,-29.33702,9.856018,220.7412,223.8235,25,1.238826,-3.075325,-0.1004446,-0.4138556,0.3988255,-0.05600655,0.3966554,-2.81713,-0.1676523,0.0150131,0.007880756,-0.4228532,172.17.160.76,10.175.81.193,5,unknown,0,2014-11-13 14:10:05.225,15,2014-11-13 13:57:29.604,0
2014-11-13 14:10:05.832,57369,1912.3,40.11402,-88.22445,225.116,-1,-1,10,65.41203,1415909268,0.4382019,0.117157,-1.273651,27.99946,-29.5782,9.353271,219.73,222.8124,25,2.186062,-3.490285,0.3078012,-0.4249018,0.3373795,-0.02932619,1.95742,-3.170942,0.07408836,0.1807388,0.04451529,-0.4230829,172.17.160.76,10.175.81.193,5,unknown,0,2014-11-13 14:10:05.225,15,2014-11-13 13:57:29.604,0
2014-11-13 14:10:05.866,57370,1912.333,40.11402,-88.22445,225.116,-1,-1,10,65.41203,1415909268,0.06407166,-0.00302124,-1.308884,23.38246,-31.16315,8.213623,217.3281,220.4105,25,2.427289,-4.535511,0.6495599,-0.4278953,0.1858687,0.0648777,2.404508,-4.238371,0.7259733,-0.004296762,0.2443366,-0.2769056,172.17.160.76,10.175.81.193,5,unknown,0,2014-11-13 14:10:05.225,15,2014-11-13 13:57:29.604,0
2014-11-13 14:10:05.899,57371,1912.367,40.11402,-88.22445,225.116,-1,-1,10,65.41203,1415909268,-0.06175232,0.2196503,-1.558548,15.49221,-34.98769,8.113037,208.6717,211.754,25,2.966465,-6.556289,0.5700262,-0.4180761,0.04535508,0.1451336,2.791794,-5.01595,0.7788098,-0.1152974,0.1678638,-0.4868728,172.17.160.76,10.175.81.193,5,unknown,0,2014-11-13 14:10:05.225,15,2014-11-13 13:57:29.604,0
2014-11-13 14:10:05.932,57372,1912.4,40.11402,-88.22445,225.116,-1,-1,10,65.41203,1415909268,-0.116394,0.2670135,-1.442703,10.94411,-36.77935,8.984558,203.9801,207.0624,25,3.650183,-8.277949,0.006429137,-0.3934653,-0.1489952,0.235417,3.2754,-6.985799,0.4035988,0.03361697,0.5002925,-0.6333424,172.17.160.76,10.175.81.193,5,unknown,0,2014-11-13 14:10:05.225,15,2014-11-13 13:57:29.604,0
2014-11-13 14:10:05.966,57373,1912.433,40.11402,-88.22445,225.116,-1,-1,10,65.41203,1415909268,-0.2660828,0.03323364,-0.8995514,1.055466,-40.53497,13.84454,216.1378,219.2202,26,4.023175,-8.552478,-0.02188879,-0.3599721,-0.3989159,0.3395467,3.765875,-8.536316,-0.02144234,0.249849,0.6000732,-0.573832,172.17.160.76,10.175.81.193,5,unknown,0,2014-11-13 14:10:05.225,15,2014-11-13 13:57:29.604,0
2014-11-13 14:10:05.999,57374,1912.467,40.11402,-88.22445,225.116,-1,-1,10,65.41203,1415909268,-0.4109039,-0.04856873,0.006149292,-3.216988,-42.32664,17.59857,219.8471,222.9294,26,4.478595,-4.142071,0.675795,-0.2566327,-0.7722916,0.472178,4.374501,-7.374901,0.3040235,0.4710827,0.4847343,0.0242411,172.17.160.76,10.175.81.193,5,unknown,0,2014-11-13 14:10:05.225,15,2014-11-13 13:57:29.604,0
2014-11-13 14:10:06.032,57375,1912.5,40.11402,-88.22445,225.116,-1,-1,10,65.41203,1415909268,-0.518692,0.1213531,0.02108765,-9.935753,-44.84187,27.28519,220.7193,223.8017,26,4.16503,-0.5799534,0.5704723,-0.124584,-0.9732684,0.5431221,4.437593,-2.534696,0.7644832,0.2968582,0.4682426,0.4877912,172.17.160.76,10.175.81.193,5,unknown,0,2014-11-13 14:10:05.225,15,2014-11-13 13:57:29.604,0
2014-11-13 14:10:06.066,57376,1912.533,40.11402,-88.22445,225.116,-1,-1,10,65.41203,1415909268,-0.5019531,-0.4376526,-0.01307678,-13.27791,-46.25454,36.03333,218.0344,221.1168,26,3.610786,0.03325383,-0.01440717,0.01440622,-1.071979,0.5938658,4.00675,-0.2042347,0.3495298,0.1111575,0.4977862,0.4070233,172.17.160.76,10.175.81.193,5,unknown,0,2014-11-13 14:10:05.225,15,2014-11-13 13:57:29.604,0
2014-11-13 14:10:06.099,57377,1912.567,40.11402,-88.22445,225.116,-1,-1,10,65.41203,1415909268,-0.3237305,-0.3875885,-0.07492065,-15.06958,-45.9789,42.26761,211.376,214.4584,26,2.356201,0.09147639,0.3016115,0.187444,-1.163596,0.6718562,2.670487,0.3011926,-0.06315193,0.4095742,0.2784915,0.2892615,172.17.160.76,10.175.81.193,5,unknown,0,2014-11-13 14:10:05.225,15,2014-11-13 13:57:29.604,0
2014-11-13 14:10:06.132,57378,1912.6,40.11402,-88.22445,225.116,-1,-1,10,65.41203,1415909268,-0.4467316,-0.3881989,0.06347656,-15.2074,-45.49653,44.34567,210.8543,213.9367,26,2.080385,-0.4866581,1.118003,0.248007,-1.200123,0.6819165,2.23166,-0.1355107,0.7577786,0.4042108,0.2742335,0.2493423,172.17.160.76,10.175.81.193,5,unknown,0,2014-11-13 14:10:05.225,15,2014-11-13 13:57:29.604,0
2014-11-13 14:10:06.166,57379,1912.633,40.11402,-88.22445,225.116,-1,-1,10,65.41203,1415909268,-0.6266937,-0.7405548,0.339798,-16.5167,-43.77377,47.56335,207.0287,210.111,26,0.7236887,-1.760774,1.018717,0.3608825,-1.312031,0.6570554,1.380163,-1.816266,1.297718,0.1081297,-0.008383133,0.3852123,172.17.160.76,10.175.81.193,5,unknown,0,2014-11-13 14:10:05.225,15,2014-11-13 13:57:29.604,0
2014-11-13 14:10:06.199,57380,1912.667,40.11402,-88.22445,225.116,-1,-1,10,65.41203,1415909268,-0.6897583,-0.4557953,0.2721405,-16.75789,-42.77457,48.80353,204.6082,207.6906,26,-1.021497,-0.599925,0.9804137,0.3821174,-1.367949,0.6328427,-0.2839472,-1.114972,0.7705323,0.158103,-0.1126317,0.5208448,172.17.160.76,10.175.81.193,5,unknown,0,2014-11-13 14:10:05.225,15,2014-11-13 13:57:29.604,0
2014-11-13 14:10:06.232,57381,1912.7,40.11402,-88.22445,225.116,-1,-1,10,65.41203,1415909268,-0.9350128,-0.5605774,0.1472931,-18.23946,-41.70647,50.11078,202.5585,205.6409,26,-1.902827,0.2397159,0.3894596,0.3411108,-1.370803,0.5856147,-1.670378,-0.5699648,1.095977,-0.02010671,0.007789879,0.2737605,172.17.160.76,10.175.81.193,5,unknown,0,2014-11-13 14:10:05.225,15,2014-11-13 13:57:29.604,0
2014-11-13 14:10:06.266,57382,1912.733,40.11402,-88.22445,225.116,-1,-1,10,65.41203,1415909268,-0.8023529,-0.5698547,0.05455017,-18.8252,-41.18964,49.13879,202.5465,205.6288,26,-1.525354,2.001745,-0.252302,0.3014859,-1.351995,0.5642506,-1.844589,0.3057868,0.4059701,-0.1101693,-0.02579463,0.3307066,172.17.160.76,10.175.81.193,5,unknown,0,2014-11-13 14:10:05.225,15,2014-11-13 13:57:29.604,0
2014-11-13 14:10:06.299,57383,1912.767,40.11402,-88.22445,225.116,-1,-1,10,65.41203,1415909268,-0.7156677,-0.7086029,-0.1215363,-19.44539,-41.32747,47.39587,203.1937,206.276,26,-1.265125,4.57447,-0.3416308,0.2317913,-1.225252,0.5573267,-1.24117,3.759492,-0.4930998,0.118027,-0.0772513,0.3110585,172.17.160.76,10.175.81.193,5,unknown,0,2014-11-13 14:10:05.225,15,2014-11-13 13:57:29.604,0
2014-11-13 14:10:06.332,57384,1912.8,40.11402,-88.22445,225.116,-1,-1,10,65.41203,1415909268,-0.7242889,-0.8106232,-0.7150879,-19.68657,-41.77538,42.20065,204.0663,207.1487,26,-1.976625,5.11993,0.651084,0.1912606,-1.051332,0.544687,-1.298411,5.702131,0.2465824,0.04242158,-0.2806778,0.1880063,172.17.160.76,10.175.81.193,5,unknown,0,2014-11-13 14:10:05.225,15,2014-11-13 13:57:29.604,0
2014-11-13 14:10:06.366,57385,1912.833,40.11402,-88.22445,225.116,-1,-1,10,65.41203,1415909268,-0.4983368,-0.6621246,-1.105377,-19.16975,-41.6031,34.5921,201.6472,204.7296,26,-2.638196,3.65956,0.1310523,0.1340031,-0.8194901,0.4762132,-2.681003,4.012014,0.497615,-0.00577093,-0.2254056,-0.1691407,172.17.160.76,10.175.81.193,5,unknown,0,2014-11-13 14:10:05.225,15,2014-11-13 13:57:29.604,0
2014-11-13 14:10:06.399,57386,1912.867,40.11402,-88.22445,225.116,-1,-1,10,65.41203,1415909268,-0.3286591,-0.5115356,-0.8314209,-18.68736,-41.25855,31.03925,199.9736,203.056,26,-1.363983,0.7274212,-0.001676726,0.08199558,-0.7022871,0.4237875,-1.873923,2.033427,-0.03064401,0.125977,-0.2465295,-0.4741145,172.17.160.76,10.175.81.193,5,unknown,0,2014-11-13 14:10:05.225,15,2014-11-13 13:57:29.604,0
2014-11-13 14:10:06.432,57387,1912.9,40.11402,-88.22445,225.116,-1,-1,10,65.41203,1415909268,-0.5343628,-0.6998901,-0.6907806,-17.2747,-39.77698,26.44733,199.1255,202.2079,26,-0.03032994,-0.1318595,0.1257356,0.06623721,-0.6829844,0.4053407,-0.7606496,0.09454852,0.07810904,0.2513116,-0.1172038,-0.118584,172.17.160.76,10.175.81.193,5,unknown,0,2014-11-13 14:10:05.225,15,2014-11-13 13:57:29.604,0
2014-11-13 14:10:06.466,57388,1912.933,40.11402,-88.22445,225.116,-1,-1,10,65.41203,1415909268,-0.5704651,-0.5943756,-0.6499481,-16.17213,-39.22569,24.63742,199.3888,202.4712,26,1.237777,3.837059,0.2395436,0.07683457,-0.6474379,0.415407,1.050804,2.81209,-0.01414303,-0.01812817,-0.2971976,0.1894353,172.17.160.76,10.175.81.193,5,unknown,0,2014-11-13 14:10:05.225,15,2014-11-13 13:57:29.604,0
2014-11-13 14:10:06.499,57389,1912.967,40.11402,-88.22445,225.116,-1,-1,10,65.41203,1415909268,-0.3564758,-0.4005737,-1.05777,-15.44857,-38.91559,23.66541,199.145,202.2273,26,1.322921,4.51339,0.4582672,0.09916056,-0.5759224,0.4333438,1.410898,4.54673,0.5042159,-0.07619642,-0.1744677,0.1112193,172.17.160.76,10.175.81.193,5,unknown,0,2014-11-13 14:10:05.225,15,2014-11-13 13:57:29.604,0
2014-11-13 14:10:06.532,57390,1913,40.11402,-88.22445,225.116,-1,-1,10,65.41203,1415909268,-0.04646301,-0.3229065,-2.04892,-14.0359,-39.50133,21.82196,194.1861,197.2684,26,2.192457,-0.3300445,-1.361214,0.1426218,-0.3868522,0.49692,1.969693,2.726599,-0.7271042,-0.0455822,0.04260774,-0.8158804,172.17.160.76,10.175.81.193,5,unknown,0,2014-11-13 14:10:05.225,15,2014-11-13 13:57:29.604,0
2014-11-13 14:10:06.565,57391,1913.033,40.11402,-88.22445,225.116,-1,-1,10,65.41203,1415909268,0.05026245,-0.4803619,-1.503738,-12.3476,-41.18962,22.19061,192.5596,195.642,26,3.042293,-1.572785,-2.094872,0.1358607,-0.3680741,0.545727,2.250697,-0.2639737,-1.344704,0.2610925,0.1961331,-1.251419,172.17.160.76,10.175.81.193,5,unknown,0,2014-11-13 14:10:05.225,15,2014-11-13 13:57:29.604,0
2014-11-13 14:10:06.599,57392,1913.067,40.11402,-88.22445,225.116,-1,-1,10,65.41203,1415909268,-0.09216309,-0.9341888,-0.6920166,-11.14166,-42.6712,24.03412,192.7993,195.8817,26,4.978468,0.5810117,-1.975078,0.09887741,-0.3992051,0.6967681,4.055261,-1.197303,-2.555851,0.3005173,0.03815054,-0.5878772,172.17.160.76,10.175.81.193,5,unknown,0,2014-11-13 14:10:05.225,15,2014-11-13 13:57:29.604,0
2014-11-13 14:10:06.632,57393,1913.1,40.11402,-88.22445,225.116,-1,-1,10,65.41203,1415909268,-0.2818146,-0.7931824,-0.6408386,-8.729797,-45.49653,28.9277,196.7644,199.8467,26,5.518115,0.263507,1.050699,0.1019853,-0.3911974,0.8549815,5.257318,1.071915,-1.122832,0.1580555,-0.1796301,-0.08536044,172.17.160.76,10.175.81.193,5,unknown,0,2014-11-13 14:10:05.225,15,2014-11-13 13:57:29.604,0
2014-11-13 14:10:06.666,57394,1913.133,40.11402,-88.22445,225.116,-1,-1,10,65.41203,1415909268,-0.3407135,-0.5426025,-0.4305115,-7.765053,-47.28821,35.56418,198.6667,201.749,26,4.083847,-1.209762,-0.949398,0.2454088,-0.4955182,0.9975422,5.601832,-0.3962251,0.9178684,-0.05319126,0.04604258,-0.04311437,172.17.160.76,10.175.81.193,5,unknown,0,2014-11-13 14:10:05.225,15,2014-11-13 13:57:29.604,0
2014-11-13 14:10:06.699,57395,1913.167,40.11402,-88.22445,225.116,-1,-1,10,65.41203,1415909268,-0.06192017,-0.9021149,3.051758e-05,-7.696144,-47.97731,38.64783,196.1784,199.2608,26,2.104487,-1.787644,-0.4885921,0.3819411,-0.6655067,1.144975,2.59751,-1.73042,-0.7730944,0.1489122,0.001611795,0.1879127,172.17.160.76,10.175.81.193,5,unknown,0,2014-11-13 14:10:05.225,15,2014-11-13 13:57:29.604,0
2014-11-13 14:10:06.732,57396,1913.2,40.11402,-88.22445,225.116,-1,-1,10,65.41203,1415909268,-0.2143555,-0.7834473,0.2155609,-8.07515,-49.32108,44.31232,197.0868,200.1691,26,1.238183,-2.043722,0.02175323,0.4345792,-0.7482261,1.181368,1.765192,-1.700884,-0.1477938,0.1963771,0.02301152,0.2782816,172.17.160.76,10.175.81.193,5,unknown,0,2014-11-13 14:10:05.225,15,2014-11-13 13:57:29.604,0
2014-11-13 14:10:06.766,57397,1913.233,40.11402,-88.22445,225.116,-1,-1,10,65.41203,1415909268,-0.2829437,-0.731369,0.4045563,-7.7995,-49.38998,46.99371,200.6907,203.7731,26,1.059993,-0.129631,-0.4982409,0.5664615,-0.9501845,1.225929,1.158875,-0.5584205,-0.2987297,-0.02518747,0.2255441,0.638464,172.17.160.76,10.175.81.193,5,unknown,0,2014-11-13 14:10:05.225,15,2014-11-13 13:57:29.604,0
2014-11-13 14:10:06.799,57398,1913.267,40.11402,-88.22445,225.116,-1,-1,10,65.41203,1415909268,-0.1988373,-0.9272308,0.1487427,-7.7995,-48.97652,48.20038,200.9938,204.0761,26,1.103518,1.551271,-0.363236,0.6226414,-0.9928447,1.257701,1.073547,1.041812,-0.584014,0.02160585,0.1446068,0.5333019,172.17.160.76,10.175.81.193,5,unknown,0,2014-11-13 14:10:05.225,15,2014-11-13 13:57:29.604,0
2014-11-13 14:10:06.833,57399,1913.3,40.11402,-88.22445,225.116,-1,-1,10,65.41203,1415909268,-0.1331787,-0.9131622,-0.1494141,-7.351585,-48.25296,49.30646,201.5011,204.5835,26,1.13306,1.57119,-0.256032,0.6436106,-0.9992633,1.267744,1.086284,1.440106,-0.4641398,0.05981262,0.06903883,0.4258647,172.17.160.76,10.175.81.193,5,unknown,0,2014-11-13 14:10:05.225,15,2014-11-13 13:57:29.604,0
2014-11-13 14:10:06.866,57400,1913.333,40.11402,-88.22445,225.116,-1,-1,10,65.41203,1415909268,-0.1605225,-0.9337463,-0.3112183,-7.627235,-48.32187,50.37903,199.0932,202.1756,26,1.248704,0.6484573,0.3999791,0.8288607,-1.082722,1.311056,0.9511796,1.370263,0.130428,0.1087383,-0.07294142,-0.1758918,172.17.160.76,10.175.81.193,5,unknown,0,2014-11-13 14:10:05.225,15,2014-11-13 13:57:29.604,0
2014-11-13 14:10:06.899,57401,1913.367,40.11402,-88.22445,225.116,-1,-1,10,65.41203,1415909268,-0.3138733,-0.8403015,0.1282806,-7.833969,-48.11514,50.58014,196.0152,199.0976,26,1.632214,-0.03346102,0.3153409,0.9794862,-1.205476,1.31598,1.405679,0.2864535,0.4414633,0.06207817,0.04882541,-0.2251653,172.17.160.76,10.175.81.193,5,unknown,0,2014-11-13 14:10:05.225,15,2014-11-13 13:57:29.604,0
2014-11-13 14:10:06.932,57402,1913.4,40.11402,-88.22445,225.116,-1,-1,10,65.41203,1415909268,-0.414978,-0.7775574,0.5486145,-8.833168,-47.18484,51.6192,194.262,197.3444,26,1.681823,0.7491648,-0.02782817,1.178862,-1.396139,1.319012,1.793291,0.2527438,0.2222304,-0.06853121,0.1281679,0.1715726,172.17.160.76,10.175.81.193,5,unknown,0,2014-11-13 14:10:05.225,15,2014-11-13 13:57:29.604,0
2014-11-13 14:10:06.966,57403,1913.433,40.11402,-88.22445,225.116,-1,-1,10,65.41203,1415909268,-0.4163055,-0.7159729,0.6651917,-9.24662,-45.87554,53.16107,192.0842,195.1666,26,0.3752538,0.6502774,-0.5425211,1.43239,-1.611044,1.326225,0.9960583,0.8925011,-0.3796446,-0.1962878,0.267284,0.6549603,172.17.160.76,10.175.81.193,5,unknown,0,2014-11-13 14:10:05.225,15,2014-11-13 13:57:29.604,0
2014-11-13 14:10:06.998,57404,1913.467,40.11402,-88.22445,225.116,-1,-1,10,65.41203,1415909268,-0.2844543,-0.8006592,0.4456635,-9.591171,-45.87554,53.36212,190.8694,193.9518,26,-2.360389,-0.3737826,-0.3986158,1.35616,-1.523435,1.348122,-1.683328,-0.1623866,-0.5163438,-0.1025448,0.2179252,0.5578795,172.17.160.76,10.175.81.193,5,unknown,0,2014-11-13 14:10:05.225,15,2014-11-13 13:57:29.604,0
2014-11-13 14:10:07.032,57405,1913.5,40.11402,-88.22445,225.116,-1,-1,10,65.41203,1415909268,-0.2073212,-0.8569031,-0.1012115,-9.728996,-46.49574,52.55768,190.1177,193.2001,26,-2.78345,-0.6545059,-0.1702913,1.013056,-1.199537,1.34086,-2.8284,-0.4228718,-0.1854299,-0.06306415,0.1034723,0.2311685,172.17.160.76,10.175.81.193,5,unknown,0,2014-11-13 14:10:05.225,15,2014-11-13 13:57:29.604,0
2014-11-13 14:10:07.066,57406,1913.533,40.11402,-88.22445,225.116,-1,-1,10,65.41203,1415909268,-0.1856384,-0.9227142,-0.3681335,-9.453346,-48.01177,49.80927,192.3876,195.47,26,-2.634398,-0.9841147,-0.1895689,0.7164989,-0.9314216,1.30585,-2.58669,-0.7608204,-0.1774999,-0.001842385,0.08349943,-0.05964774,172.17.160.76,10.175.81.193,5,unknown,0,2014-11-13 14:10:05.225,15,2014-11-13 13:57:29.604,0
2014-11-13 14:10:07.099,57407,1913.567,40.11402,-88.22445,225.116,-1,-1,10,65.41203,1415909268,-0.2075958,-0.9171906,-0.4627686,-8.936516,-48.87316,48.43503,193.6921,196.7744,26,-2.425894,-1.320584,-0.1284325,0.5020775,-0.756915,1.257458,-2.608513,-1.215204,-0.1267369,0.02490801,0.02488771,-0.1865545,172.17.160.76,10.175.81.193,5,unknown,0,2014-11-13 14:10:05.225,15,2014-11-13 13:57:29.604,0
2014-11-13 14:10:07.132,57408,1913.6,40.11402,-88.22445,225.116,-1,-1,10,65.41203,1415909268,-0.207901,-0.8977356,-0.4136963,-7.868408,-49.59672,46.18939,198.768,201.8504,26,-1.770672,-1.048957,-0.2801861,0.3541313,-0.6548113,1.205042,-2.099916,-1.225254,-0.1594774,-0.01630078,0.03721714,-0.1620007,172.17.160.76,10.175.81.193,1,unknown,0,2014-11-13 14:10:05.225,15,2014-11-13 13:57:29.604,0
2014-11-13 14:10:07.166,57409,1913.633,40.11402,-88.22445,225.116,-1,-1,10,65.41203,1415909268,-0.2061768,-1.004379,-0.5788879,-6.869217,-49.97573,44.41296,201.8098,204.8922,26,-0.73181,0.1570232,0.2052488,0.2330256,-0.5777834,1.155197,-1.386203,-0.4103555,-0.1260144,0.03012504,-0.03121602,-0.1232245,172.17.160.76,10.175.81.193,1,unknown,0,2014-11-13 14:10:05.225,15,2014-11-13 13:57:29.604,0
2014-11-13 14:10:07.199,57410,1913.667,40.11402,-88.22445,225.116,-1,-1,10,65.41203,1415909268,-0.2977295,-0.8623352,-0.7360382,-6.765846,-49.73454,43.64206,202.1852,205.2675,26,0.1266139,0.3220646,0.1636286,0.2119504,-0.5548986,1.133035,-0.3132797,0.435905,0.2852178,0.006651477,-0.08381427,-0.298797,172.17.160.76,10.175.81.193,1,unknown,0,2014-11-13 14:10:05.225,15,2014-11-13 13:57:29.604,0
2014-11-13 14:10:07.232,57411,1913.7,40.11402,-88.22445,225.116,-1,-1,10,65.41203,1415909268,-0.3036041,-0.8828888,-0.5903015,-7.144852,-50.11356,42.40192,202.1843,205.2667,26,0.4002379,-0.2174737,-0.2106944,0.2275143,-0.5571189,1.132891,0.3141228,0.2574739,0.05264866,-0.08856451,0.05542197,-0.3381383,172.17.160.76,10.175.81.193,1,unknown,0,2014-11-13 14:10:05.225,15,2014-11-13 13:57:29.604,0
2014-11-13 14:10:07.266,57412,1913.733,40.11402,-88.22445,225.116,-1,-1,10,65.41203,1415909268,-0.2493134,-0.9130096,-0.2812347,-7.386032,-50.14801,42.36838,201.8423,204.9247,26,0.4801727,-0.6656598,-0.3184406,0.2346199,-0.5665337,1.14654,0.5043427,-0.3942436,-0.2667558,-0.06513847,0.01238875,-0.1715138,172.17.160.76,10.175.81.193,1,unknown,0,2014-11-13 14:10:05.225,15,2014-11-13 13:57:29.604,0
2014-11-13 14:10:07.299,57413,1913.767,40.11402,-88.22445,225.116,-1,-1,10,65.41203,1415909268,-0.2386169,-0.9853973,-0.07344055,-6.662476,-50.11356,42.9382,202.6109,205.6933,26,0.422515,-0.7346042,-0.3058499,0.235823,-0.5992292,1.171962,0.5233988,-0.8857667,-0.3479653,-0.02166327,-0.02398148,0.1321767,172.17.160.76,10.175.81.193,1,unknown,0,2014-11-13 14:10:05.225,15,2014-11-13 13:57:29.604,0
2014-11-13 14:10:07.332,57414,1913.8,40.11402,-88.22445,225.116,-1,-1,10,65.41203,1415909268,-0.3440857,-0.8637543,-0.1244507,-5.835556,-50.04465,44.27887,203.6102,206.6926,26,0.3191996,0.1552202,-0.1097105,0.2440149,-0.6213676,1.192433,0.4296654,0.07753965,-0.1291838,0.006442374,-0.005665977,0.226546,172.17.160.76,10.175.81.193,1,unknown,0,2014-11-13 14:10:05.225,15,2014-11-13 13:57:29.604,0
2014-11-13 14:10:07.366,57415,1913.833,40.11402,-88.22445,225.116,-1,-1,10,65.41203,1415909268,-0.2548676,-0.890686,-0.07237244,-5.456558,-50.07911,45.11682,204.3705,207.4529,26,0.2547697,0.7914473,-0.1464552,0.2523371,-0.6200655,1.204183,0.3630672,0.5083898,-0.2062768,-0.07483228,0.07905449,0.2272575,172.17.160.76,10.175.81.193,1,unknown,0,2014-11-13 14:10:05.225,15,2014-11-13 13:57:29.604,0
2014-11-13 14:10:07.399,57416,1913.867,40.11402,-88.22445,225.116,-1,-1,10,65.41203,1415909268,-0.1976166,-0.9581451,-0.1204071,-5.525467,-50.42366,44.98273,204.3324,207.4148,26,0.4321762,0.7210663,0.3959886,0.2583246,-0.6081008,1.209723,0.2197484,0.9738127,0.06951118,-0.0530361,0.04483216,0.2175754,172.17.160.76,10.175.81.193,1,unknown,0,2014-11-13 14:10:05.225,15,2014-11-13 13:57:29.604,0
2014-11-13 14:10:07.432,57417,1913.9,40.11402,-88.22445,225.116,-1,-1,10,65.41203,1415909268,-0.1941833,-0.8778229,-0.2215576,-6.180115,-50.80267,44.68109,202.0713,205.1537,26,-0.6390074,1.073458,0.4199006,0.3123419,-0.6095449,1.210648,-0.1909151,1.398299,0.2547975,0.08522308,0.04943102,0.157553,172.17.160.76,10.175.81.193,1,unknown,0,2014-11-13 14:10:05.225,15,2014-11-13 13:57:29.604,0
2014-11-13 14:10:07.466,57418,1913.933,40.11402,-88.22445,225.116,-1,-1,10,65.41203,1415909268,-0.2290955,-0.7944183,-0.2586975,-7.041489,-50.35474,43.91019,200.5954,203.6778,26,-0.9617622,0.5582337,0.5563887,0.3152619,-0.5863444,1.199214,-0.5807707,1.139522,0.436408,0.00672176,0.05393102,0.08088546,172.17.160.76,10.175.81.193,1,unknown,0,2014-11-13 14:10:05.225,15,2014-11-13 13:57:29.604,0
2014-11-13 14:10:07.499,57419,1913.967,40.11402,-88.22445,225.116,-1,-1,10,65.41203,1415909268,-0.1983643,-0.9033356,-0.3144226,-7.696144,-50.11356,43.13928,198.326,201.4084,26,-0.8780141,1.030451,0.4789506,0.3130242,-0.5583252,1.157116,-1.009012,0.5305285,0.5313994,0.02370199,0.07273667,0.1208154,172.17.160.76,10.175.81.193,1,unknown,0,2014-11-13 14:10:05.225,15,2014-11-13 13:57:29.604,0
2014-11-13 14:10:07.532,57420,1914,40.11402,-88.22445,225.116,-1,-1,10,65.41203,1415909268,-0.22258,-0.8775177,-0.4622345,-8.212967,-49.4589,41.89914,197.1606,200.243,26,-0.2466625,1.484114,0.5118814,0.3103595,-0.5386464,1.136069,-0.8197781,1.096513,0.4954578,0.01768168,0.003649353,0.0471054,172.17.160.76,10.175.81.193,1,unknown,0,2014-11-13 14:10:05.225,15,2014-11-13 13:57:29.604,0
2014-11-13 14:10:07.566,57421,1914.033,40.11402,-88.22445,225.116,-1,-1,10,65.41203,1415909268,-0.1428986,-0.9085846,-0.4797974,-8.454147,-49.56227,41.53046,194.9753,198.0577,26,0.6926759,1.639799,0.5028149,0.3660589,-0.5117341,1.127116,0.7573857,1.699274,0.4916644,0.05641414,-0.0867513,-0.1314308,172.17.160.76,10.175.81.193,1,unknown,0,2014-11-13 14:10:05.225,15,2014-11-13 13:57:29.604,0
2014-11-13 14:10:07.599,57422,1914.067,40.11402,-88.22445,225.116,-1,-1,10,65.41203,1415909268,-0.177948,-0.9059753,-0.4781494,-9.281067,-49.14881,40.45789,192.788,195.8704,26,-0.3096889,-0.01129447,0.1741217,0.4295591,-0.5179514,1.134557,0.07242846,0.5671782,0.3863653,0.03742877,-0.03830913,-0.09167388,172.17.160.76,10.175.81.193,1,unknown,0,2014-11-13 14:10:05.225,15,2014-11-13 13:57:29.604,0
2014-11-13 14:10:07.633,57423,1914.1,40.11402,-88.22445,225.116,-1,-1,10,65.41203,1415909268,-0.2554932,-0.881485,-0.3760681,-9.556709,-49.01099,40.12268,189.4351,192.5175,26,-0.6507325,-0.6746107,-0.02552986,0.4294171,-0.5187232,1.12774,-0.4678134,-0.3657715,0.06715366,0.0009296612,0.01805449,-0.08685956,172.17.160.76,10.175.81.193,1,unknown,0,2014-11-13 14:10:05.225,15,2014-11-13 13:57:29.604,0
2014-11-13 14:10:07.666,57424,1914.133,40.11402,-88.22445,225.116,-1,-1,10,65.41203,1415909268,-0.213623,-0.830719,-0.1996002,-10.866,-48.52862,39.45233,188.2801,191.3624,26,-0.6029594,-0.4676031,0.09320585,0.4153307,-0.5188753,1.117519,-0.6266578,-0.7542689,-0.03089228,-0.03833003,0.01753196,0.004206402,172.17.160.76,10.175.81.193,1,unknown,0,2014-11-13 14:10:05.225,15,2014-11-13 13:57:29.604,0
2014-11-13 14:10:07.699,57425,1914.167,40.11402,-88.22445,225.116,-1,-1,10,65.41203,1415909268,-0.1255951,-0.809433,-0.4847717,-11.10719,-48.0807,39.2847,189.1422,192.2246,26,0.08045942,1.135696,0.8283278,0.4300261,-0.5342991,1.092116,-0.01600268,0.9157534,0.8120633,0.05377303,0.1134794,0.1355318,172.17.160.76,10.175.81.193,1,unknown,0,2014-11-13 14:10:05.225,15,2014-11-13 13:57:29.604,0
2014-11-13 14:10:07.732,57426,1914.2,40.11402,-88.22445,225.116,-1,-1,10,65.41203,1415909268,-0.1103058,-0.923172,-0.469574,-11.96857,-47.97734,38.64783,186.6455,189.7279,26,0.2963177,0.3028595,1.152193,0.484551,-0.5502408,1.084655,0.3845675,0.8598021,0.8856338,0.1187096,0.07470923,-0.08651583,172.17.160.76,10.175.81.193,1,unknown,0,2014-11-13 14:10:05.225,15,2014-11-13 13:57:29.604,0
2014-11-13 14:10:07.766,57427,1914.233,40.11402,-88.22445,225.116,-1,-1,10,65.41203,1415909268,-0.2290497,-0.4954071,-0.6880951,-12.58876,-47.70171,38.84894,184.9104,187.9928,26,-0.3905632,-0.6759172,1.370399,0.5551152,-0.5994061,1.074897,0.2110002,0.1535549,1.34537,0.1644019,-0.01630217,-0.0555373,172.17.160.76,10.175.81.193,1,unknown,0,2014-11-13 14:10:05.225,15,2014-11-13 13:57:29.604,0
2014-11-13 14:10:07.799,57428,1914.267,40.11402,-88.22445,225.116,-1,-1,10,65.41203,1415909268,-0.7650757,-1.577957,-0.2292175,-14.00142,-46.84032,38.74841,181.8366,184.919,26,-0.9117092,-3.619669,0.5702909,0.6030751,-0.6838841,1.02842,-1.444722,-2.695242,0.6667717,-0.007633307,0.2819302,-0.1312283,172.17.160.76,10.175.81.193,1,unknown,0,2014-11-13 14:10:05.225,15,2014-11-13 13:57:29.604,0
2014-11-13 14:10:07.832,57429,1914.3,40.11402,-88.22445,225.116,-1,-1,10,65.41203,1415909268,-0.4095001,-0.5769348,-0.3015289,-14.72498,-45.70329,39.58636,183.5046,186.587,26,-0.8402718,-2.191583,-0.1304648,0.5880319,-0.7690834,0.9944388,-0.7180258,-2.670758,0.4359607,-0.302029,-0.3110218,0.2108037,172.17.160.76,10.175.81.193,1,unknown,0,2014-11-13 14:10:05.225,15,2014-11-13 13:57:29.604,0
2014-11-13 14:10:07.865,57430,1914.333,40.11402,-88.22445,225.116,-1,-1,10,65.41203,1415909268,-0.4205933,-0.8717499,-0.5540619,-15.06953,-45.42764,39.92151,185.2043,188.2867,26,-0.1975216,-0.9439862,-0.4935746,0.5581242,-0.8078765,0.9794627,-0.7043839,-1.898931,-0.3561375,-0.05055618,0.06010215,0.05927205,172.17.160.76,10.175.81.193,1,unknown,0,2014-11-13 14:10:05.225,15,2014-11-13 13:57:29.604,0
2014-11-13 14:10:07.899,57431,1914.367,40.11402,-88.22445,225.116,-1,-1,10,65.41203,1415909268,-0.4965057,-0.8025055,-0.5363464,-14.89725,-45.11755,41.49689,188.5231,191.6054,26,0.9798214,-0.3196129,-0.4745271,0.5339456,-0.8261353,0.9896381,0.5333094,-0.502253,-0.3566019,-0.0348691,-0.003497565,-0.2099057,172.17.160.76,10.175.81.193,1,unknown,0,2014-11-13 14:10:05.225,15,2014-11-13 13:57:29.604,0
2014-11-13 14:10:07.932,57432,1914.4,40.11402,-88.22445,225.116,-1,-1,10,65.41203,1415909268,-0.374115,-0.9234467,-0.3006897,-14.62162,-45.59992,42.77057,189.8453,192.9277,26,1.697577,-0.06893326,-0.8643971,0.5664181,-0.8587135,1.02815,1.660637,-0.04256584,-0.762827,-0.09775909,0.02930368,-0.1387415,172.17.160.76,10.175.81.193,1,unknown,0,2014-11-13 14:10:05.225,15,2014-11-13 13:57:29.604,0
2014-11-13 14:10:07.965,57433,1914.433,40.11402,-88.22445,225.116,-1,-1,10,65.41203,1415909268,-0.3378296,-0.9590149,-0.2826538,-13.96696,-45.42764,43.80963,190.4081,193.4905,26,1.015995,-0.8123584,-0.5759752,0.6301836,-0.918103,1.093898,1.345592,-0.3902074,-0.6658219,0.01764281,-0.04048634,-0.02036924,172.17.160.76,10.175.81.193,1,unknown,0,2014-11-13 14:10:05.225,15,2014-11-13 13:57:29.604,0
2014-11-13 14:10:07.998,57434,1914.467,40.11402,-88.22445,225.116,-1,-1,10,65.41203,1415909268,-0.3749542,-0.974762,-0.1321411,-12.5543,-45.59992,45.78717,191.3008,194.3831,26,0.5153571,-1.345431,-0.1395771,0.6621352,-0.9774801,1.119964,0.6357126,-1.423869,-0.258875,-0.01138738,-0.09459005,-0.1050186,172.17.160.76,10.175.81.193,1,unknown,0,2014-11-13 14:10:05.225,15,2014-11-13 13:57:29.604,0
2014-11-13 14:10:08.035,57435,1914.5,40.11402,-88.22445,225.116,-1,-1,10,65.41203,1415909268,-0.3738098,-0.9784851,-0.04566956,-11.65846,-45.66883,48.06635,193.3315,196.4138,26,0.1814651,-1.021091,0.01517309,0.6901041,-1.038963,1.131848,0.3738976,-1.108092,0.03248614,-0.008665924,-0.06956307,0.08337649,172.17.160.76,10.175.81.193,1,unknown,0,2014-11-13 14:10:05.225,15,2014-11-13 13:57:29.604,0
2014-11-13 14:10:08.066,57436,1914.533,40.11402,-88.22445,225.116,-1,-1,10,65.41203,1415909268,-0.3647308,-0.9134979,-0.1900177,-11.48619,-45.56547,48.70316,194.1307,197.2131,26,0.04966476,-0.3640818,0.05309384,0.7028539,-1.078061,1.131811,-0.02549486,-0.4424092,0.07676185,-0.01945951,-0.01965173,0.006409976,172.17.160.76,10.175.81.193,1,unknown,0,2014-11-13 14:10:05.225,15,2014-11-13 13:57:29.604,0
2014-11-13 14:10:08.098,57437,1914.567,40.11402,-88.22445,225.116,-1,-1,10,65.41203,1415909268,-0.3855133,-0.9174347,-0.1747894,-10.866,-45.63437,50.24493,195.0013,198.0837,26,0.1595268,-0.2663374,0.05850459,0.710121,-1.094551,1.131271,0.1782619,-0.261877,0.07588796,0.003785693,0.01002583,-0.02025881,172.17.160.76,10.175.81.193,1,unknown,0,2014-11-13 14:10:05.225,15,2014-11-13 13:57:29.604,0
2014-11-13 14:10:08.133,57438,1914.6,40.11402,-88.22445,225.116,-1,-1,10,65.41203,1415909268,-0.4124603,-0.8725281,-0.1569977,-10.79708,-45.42764,50.64719,195.5153,198.5976,26,0.1436325,-0.1973722,0.04406653,0.7259877,-1.115028,1.132196,0.2231001,-0.1470829,0.08375484,-0.01297895,0.001462027,0.01557994,172.17.160.76,10.175.81.193,1,unknown,0,2014-11-13 14:10:05.225,15,2014-11-13 13:57:29.604,0
2014-11-13 14:10:08.166,57439,1914.633,40.11402,-88.22445,225.116,-1,-1,10,65.41203,1415909268,-0.4012909,-0.9163971,-0.1503296,-11.245,-45.66883,50.41254,195.6505,198.7329,26,0.04090029,-0.07338767,-0.1480856,0.7502647,-1.143669,1.133656,0.1085934,-0.06233288,-0.09687523,-0.02364936,0.02734954,0.04303692,172.17.160.76,10.175.81.193,1,unknown,0,2014-11-13 14:10:05.225,15,2014-11-13 13:57:29.604,0
2014-11-13 14:10:08.199,57440,1914.667,40.11402,-88.22445,225.116,-1,-1,10,65.41203,1415909268,-0.3750763,-0.9459076,-0.1811371,-11.245,-45.66883,50.41254,195.6562,198.7386,26,0.2465019,-0.01563063,-0.08486243,0.7578681,-1.15152,1.136891,0.1386632,0.03932225,-0.1410322,-0.01728862,-0.009066205,0.02082213,172.17.160.76,10.175.81.193,1,unknown,0,2014-11-13 14:10:05.225,15,2014-11-13 13:57:29.604,0
2014-11-13 14:10:08.232,57441,1914.7,40.11402,-88.22445,225.116,-1,-1,10,65.41203,1415909268,-0.4034882,-0.9306335,-0.09492493,-11.38283,-45.32427,50.34552,195.8522,198.9346,26,0.1671267,0.07824527,0.100627,0.7861094,-1.174744,1.144524,0.2882221,0.04432431,0.1089399,0.005984595,-0.03489078,0.007290134,172.17.160.76,10.175.81.193,1,unknown,0,2014-11-13 14:10:05.225,15,2014-11-13 13:57:29.604,0
2014-11-13 14:10:08.266,57442,1914.733,40.11402,-88.22445,225.116,-1,-1,10,65.41203,1415909268,-0.4056091,-0.8868103,-0.1168671,-11.34837,-45.15199,50.44608,195.673,198.7554,26,-0.06571004,0.3727424,-0.03282,0.8107035,-1.192074,1.144723,0.07547057,0.3807989,0.04888318,-0.02292564,-0.001223755,0.06546907,172.17.160.76,10.175.81.193,1,unknown,0,2014-11-13 14:10:05.225,15,2014-11-13 13:57:29.604,0
2014-11-13 14:10:08.299,57443,1914.767,40.11402,-88.22445,225.116,-1,-1,10,65.41203,1415909268,-0.3504944,-0.8794708,-0.2277374,-11.79629,-44.97972,50.47961,195.0165,198.0989,26,-0.04320206,-0.1183503,-0.1978971,0.8027411,-1.170528,1.145253,-0.09539833,0.2267195,-0.2442502,0.01514961,0.03700461,-0.04989425,172.17.160.76,10.175.81.193,1,unknown,0,2014-11-13 14:10:05.225,15,2014-11-13 13:57:29.604,0
2014-11-13 14:10:08.332,57444,1914.8,40.11402,-88.22445,225.116,-1,-1,10,65.41203,1415909268,-0.340744,-0.8978882,-0.1724854,-11.52065,-45.39318,50.68069,194.6919,197.7742,26,0.1319985,-0.2486988,0.0003190467,0.7866854,-1.154263,1.150313,0.1010903,-0.148455,-0.1036658,0.03708677,0.01581249,-0.04106749,172.17.160.76,10.175.81.193,1,unknown,0,2014-11-13 14:10:05.225,15,2014-11-13 13:57:29.604,0
2014-11-13 14:10:08.366,57445,1914.833,40.11402,-88.22445,225.116,-1,-1,10,65.41203,1415909268,-0.3870239,-0.9134369,-0.1052551,-11.52065,-45.531,50.61365,195.0876,198.1699,26,0.01593582,-0.1925625,-0.0307952,0.8044468,-1.176995,1.153105,0.1731943,-0.1645291,0.02441984,-0.006181708,0.000972599,0.03998732,172.17.160.76,10.175.81.193,1,unknown,0,2014-11-13 14:10:05.225,15,2014-11-13 13:57:29.604,0
2014-11-13 14:10:08.399,57446,1914.867,40.11402,-88.22445,225.116,-1,-1,10,65.41203,1415909268,-0.3792725,-0.8923492,-0.141037,-11.00382,-45.63438,50.44608,195.4107,198.4931,26,0.01404019,-0.1079848,-0.08766274,0.8095246,-1.184478,1.153835,0.07419714,-0.1265218,-0.01428421,-0.01188612,0.0008868434,0.04733496,172.17.160.76,10.175.81.193,1,unknown,0,2014-11-13 14:10:05.225,15,2014-11-13 13:57:29.604,0
2014-11-13 14:10:08.432,57447,1914.9,40.11402,-88.22445,225.116,-1,-1,10,65.41203,1415909268,-0.349472,-0.9072723,-0.1364441,-10.69373,-45.59992,50.47961,195.516,198.5984,26,-0.01910285,-0.2131259,-0.0827849,0.8169247,-1.194791,1.157175,0.0596192,-0.09434799,-0.1170234,-0.0009983381,0.01605875,-0.001685536,172.17.160.76,10.175.81.193,1,unknown,0,2014-11-13 14:10:05.225,15,2014-11-13 13:57:29.604,0
2014-11-13 14:10:08.466,57448,1914.933,40.11402,-88.22445,225.116,-1,-1,10,65.41203,1415909268,-0.3769531,-0.894516,-0.1046906,-10.76263,-45.59992,50.14447,195.7915,198.8739,26,-0.1112349,-0.2460207,0.05856398,0.8179638,-1.201764,1.160452,-0.01982528,-0.1834055,0.04520897,0.02541882,0.004004505,0.02387167,172.17.160.76,10.175.81.193,1,unknown,0,2014-11-13 14:10:05.225,15,2014-11-13 13:57:29.604,0
2014-11-13 14:10:08.499,57449,1914.967,40.11402,-88.22445,225.116,-1,-1,10,65.41203,1415909268,-0.3725433,-0.8803101,-0.105484,-10.83154,-45.94447,50.61374,196.2503,199.3327,26,-0.2163214,-0.09380026,-0.05275802,0.8166032,-1.206687,1.157391,-0.1368474,-0.06364383,-0.00254865,-0.01559825,0.02916155,0.0571712,172.17.160.76,10.175.81.193,1,unknown,0,2014-11-13 14:10:05.225,15,2014-11-13 13:57:29.604,0
2014-11-13 14:10:08.532,57450,1915,40.11402,-88.22445,225.116,-1,-1,10,65.41203,1415909268,-0.392868,-0.9552155,-0.1100464,-10.93491,-45.97893,50.64728,196.3717,199.454,26,-0.4421622,-0.1430703,-0.1190452,0.8070523,-1.19996,1.157001,-0.2730823,-0.09392275,-0.08074605,0.00604144,0.02361849,0.03694973,172.17.160.76,10.175.81.193,1,unknown,0,2014-11-13 14:10:05.225,15,2014-11-13 13:57:29.604,0
2014-11-13 14:10:08.566,57451,1915.033,40.11402,-88.22445,225.116,-1,-1,10,65.41203,1415909268,-0.3753815,-0.9143219,-0.1454926,-11.41728,-46.18566,50.51321,196.386,199.4684,26,-0.0319875,-0.1479492,-0.03568822,0.7830999,-1.179245,1.156385,-0.09297652,-0.03425805,-0.04820171,0.002823153,-0.01457798,-0.02105231,172.17.160.76,10.175.81.193,1,unknown,0,2014-11-13 14:10:05.225,15,2014-11-13 13:57:29.604,0
2014-11-13 14:10:08.599,57452,1915.067,40.11402,-88.22445,225.116,-1,-1,10,65.41203,1415909268,-0.3619843,-0.9115753,-0.131485,-11.65846,-45.73775,50.21155,197.0773,200.1596,26,0.2420515,0.2052088,0.03308019,0.7971787,-1.1928,1.159246,0.2535071,0.1699536,0.0004047036,0.006037326,-0.001070094,0.02594598,172.17.160.76,10.175.81.193,1,unknown,0,2014-11-13 14:10:05.225,15,2014-11-13 13:57:29.604,0
2014-11-13 14:10:08.632,57453,1915.1,40.11402,-88.22445,225.116,-1,-1,10,65.41203,1415909268,-0.3996582,-0.9205322,-0.1002197,-11.31392,-45.80666,50.07745,197.1641,200.2465,26,0.1706045,0.2202008,0.04404149,0.8116941,-1.201207,1.16085,0.3003425,0.2712446,0.04959083,-0.004878328,-0.0004908053,0.01964426,172.17.160.76,10.175.81.193,1,unknown,0,2014-11-13 14:10:05.225,15,2014-11-13 13:57:29.604,0
2014-11-13 14:10:08.666,57454,1915.133,40.11402,-88.22445,225.116,-1,-1,10,65.41203,1415909268,-0.3938141,-0.908493,-0.1030426,-11.07273,-45.42764,50.78137,196.5906,199.673,26,-0.1597513,0.1806662,-0.005880792,0.8275487,-1.207969,1.160655,-0.00561253,0.2735275,0.0518118,-0.02848053,0.01348475,0.02743021,172.17.160.76,10.175.81.193,1,unknown,0,2014-11-13 14:10:05.225,15,2014-11-13 13:57:29.604,0
2014-11-13 14:10:08.699,57455,1915.167,40.11402,-88.22445,225.116,-1,-1,10,65.41203,1415909268,-0.3488312,-0.9008636,-0.144989,-11.31392,-45.87556,50.54681,195.9305,199.0129,26,-0.2062762,0.4629181,-0.06047879,0.817783,-1.187067,1.158026,-0.1607638,0.4608091,-0.06231668,0.001186169,0.003857954,0.05217529,172.17.160.76,10.175.81.193,1,unknown,0,2014-11-13 14:10:05.225,15,2014-11-13 13:57:29.604,0
2014-11-13 14:10:08.732,57456,1915.2,40.11402,-88.22445,225.116,-1,-1,10,65.41203,1415909268,-0.3860016,-0.8875732,-0.1899414,-11.79629,-46.35794,50.14459,195.3967,198.479,26,-0.0482168,0.3737725,-0.1772416,0.8065158,-1.161184,1.158358,-0.09675959,0.5309411,-0.05794252,0.0102017,0.02617728,-0.004653466,172.17.160.76,10.175.81.193,1,unknown,0,2014-11-13 14:10:05.225,15,2014-11-13 13:57:29.604,0
2014-11-13 14:10:08.766,57457,1915.233,40.11402,-88.22445,225.116,-1,-1,10,65.41203,1415909268,-0.3524017,-0.9018555,-0.1043396,-11.72738,-46.28903,49.94348,195.0366,198.119,26,0.01905545,0.3628173,-0.2168261,0.8001366,-1.141403,1.160237,0.0474691,0.3831656,-0.2004342,-0.0231124,0.02932454,-0.02377916,172.17.160.76,10.175.81.193,1,unknown,0,2014-11-13 14:10:05.225,15,2014-11-13 13:57:29.604,0
2014-11-13 14:10:08.799,57458,1915.267,40.11402,-88.22445,225.116,-1,-1,10,65.41203,1415909268,-0.3110809,-0.9219208,-0.1039429,-11.58955,-46.28903,49.87643,194.6416,197.724,26,-0.3286442,0.5422511,-0.1158614,0.7966383,-1.115856,1.170813,-0.1668294,0.5888161,-0.136985,0.0215641,-0.01937756,0.09516425,172.17.160.76,10.175.81.193,1,unknown,0,2014-11-13 14:10:05.225,15,2014-11-13 13:57:29.604,0
2014-11-13 14:10:08.832,57459,1915.3,40.11402,-88.22445,225.116,-1,-1,10,65.41203,1415909268,-0.3248596,-0.921524,-0.1820068,-11.76183,-46.11675,49.64182,194.415,197.4973,26,-0.4663262,0.3510914,-0.111045,0.7810687,-1.089473,1.169972,-0.3524413,0.5955877,-0.09591805,0.03476609,-0.001181223,0.07669078,172.17.160.76,10.175.81.193,1,unknown,0,2014-11-13 14:10:05.225,15,2014-11-13 13:57:29.604,0
2014-11-13 14:10:08.866,57460,1915.333,40.11402,-88.22445,225.116,-1,-1,10,65.41203,1415909268,-0.3154755,-0.8936615,-0.2117767,-11.27946,-46.18565,48.77039,193.8902,196.9725,26,-0.2288361,0.2632162,-0.05401557,0.7517506,-1.049161,1.167533,-0.3473182,0.3480547,-0.08981157,0.01740196,0.006912869,-0.02750939,172.17.160.76,10.175.81.193,1,unknown,0,2014-11-13 14:10:05.225,15,2014-11-13 13:57:29.604,0
2014-11-13 14:10:08.899,57461,1915.367,40.11402,-88.22445,225.116,-1,-1,10,65.41203,1415909268,-0.3599243,-0.8772278,-0.175293,-11.14164,-46.39239,47.76483,193.6523,196.7346,26,-0.3563946,0.3709464,-0.148504,0.7271547,-1.009627,1.163842,-0.2247898,0.3779691,-0.06039065,-0.01364538,0.02448601,0.02865149,172.17.160.76,10.175.81.193,1,unknown,0,2014-11-13 14:10:05.225,15,2014-11-13 13:57:29.604,0
2014-11-13 14:10:08.932,57462,1915.4,40.11402,-88.22445,225.116,-1,-1,10,65.41203,1415909268,-0.4345093,-0.828476,-0.1808319,-11.14164,-46.94367,47.09445,193.2798,196.3621,26,-0.5949742,0.6318749,-0.5071405,0.7091669,-0.98401,1.16301,-0.3872802,0.5053228,-0.2321332,-0.04009062,0.0599993,0.04698827,172.17.160.76,10.175.81.193,1,unknown,0,2014-11-13 14:10:05.225,15,2014-11-13 13:57:29.604,0
2014-11-13 14:10:08.965,57463,1915.433,40.11402,-88.22445,225.116,-1,-1,10,65.41203,1415909268,-0.4590759,-0.774353,-0.2597198,-11.10719,-46.97813,46.59174,193.2148,196.2972,26,-0.3644808,1.50363,-1.420533,0.6343644,-0.8841547,1.168263,-0.5128567,1.120169,-0.8546993,-0.1676856,0.113614,0.05451527,172.17.160.76,10.175.81.193,1,unknown,0,2014-11-13 14:10:05.225,15,2014-11-13 13:57:29.604,0
2014-11-13 14:10:08.999,57464,1915.467,40.11402,-88.22445,225.116,-1,-1,10,65.41203,1415909268,-0.3260193,-0.6975098,-0.3659363,-10.07352,-47.66723,45.25101,193.3984,196.4808,26,-0.05143496,1.657711,-1.964373,0.5783225,-0.8042284,1.18069,-0.3061729,1.56965,-1.404015,-0.1851567,0.1505154,0.004072887,172.17.160.76,10.175.81.193,1,unknown,0,2014-11-13 14:10:05.225,15,2014-11-13 13:57:29.604,0
2014-11-13 14:10:09.032,57465,1915.5,40.11402,-88.22445,225.116,-1,-1,10,65.41203,1415909268,-0.2077332,-0.8575134,-0.3781281,-9.10878,-48.1496,44.51361,193.42,196.5024,26,0.4238266,1.370533,-2.678858,0.4064806,-0.576928,1.233246,0.317425,1.567854,-2.450858,-0.1313711,0.244518,-0.09613018,172.17.160.76,10.175.81.193,1,unknown,0,2014-11-13 14:10:05.225,15,2014-11-13 13:57:29.604,0
2014-11-13 14:10:09.066,57466,1915.533,40.11402,-88.22445,225.116,-1,-1,10,65.41203,1415909268,0.03573608,-0.9349213,-0.3316956,-5.422073,-49.70008,43.40753,195.7765,198.8588,26,1.207829,1.106607,-2.543068,0.1062657,-0.2350647,1.304551,1.123967,1.285965,-2.723918,-0.06141583,0.05978206,-0.1110376,172.17.160.76,10.175.81.193,1,unknown,0,2014-11-13 14:10:05.225,15,2014-11-13 13:57:29.604,0
2014-11-13 14:10:09.099,57467,1915.567,40.11402,-88.22445,225.116,-1,-1,10,65.41203,1415909268,0.101944,-0.914032,-0.09947205,-1.252991,-51.11274,44.0444,199.4932,202.5755,26,1.36102,0.7304657,-2.532884,-0.1768851,0.07331011,1.350744,1.464386,1.047531,-2.193584,0.03381687,0.02881887,-0.0757631,172.17.160.76,10.175.81.193,1,unknown,0,2014-11-13 14:10:05.225,15,2014-11-13 13:57:29.604,0
2014-11-13 14:10:09.132,57468,1915.6,40.11402,-88.22445,225.116,-1,-1,10,65.41203,1415909268,0.3369141,-1.249496,-0.1404877,3.019455,-51.59512,45.18405,203.0112,206.0936,26,0.5178064,0.4976409,-1.896187,-0.6865438,0.603372,1.358173,0.6838893,0.6980131,-2.2339,0.114757,-0.1713535,0.04771043,172.17.160.76,10.175.81.193,1,unknown,0,2014-11-13 14:10:05.225,15,2014-11-13 13:57:29.604,0
2014-11-13 14:10:09.166,57469,1915.633,40.11402,-88.22445,225.116,-1,-1,10,65.41203,1415909268,0.6350403,-1.504562,-0.2675629,4.569946,-51.69849,45.48572,205.369,208.4514,26,-0.05020858,-0.6869113,0.2131131,-0.8769914,0.7992069,1.340921,0.2552137,-0.09192771,-0.6272482,0.3584008,-0.4267263,-0.04505548,172.17.160.76,10.175.81.193,1,unknown,0,2014-11-13 14:10:05.225,15,2014-11-13 13:57:29.604,0
2014-11-13 14:10:09.199,57470,1915.667,40.11402,-88.22445,225.116,-1,-1,10,65.41203,1415909268,0.5878143,-1.32457,-0.3101044,5.913696,-51.3884,45.92145,208.1,211.1823,26,-1.441489,-3.700422,3.361424,-0.759205,0.6492578,1.352467,-0.7873495,-2.105185,2.029312,0.5224265,-0.5070004,-0.1255675,172.17.160.76,10.175.81.193,1,unknown,0,2014-11-13 14:10:05.225,15,2014-11-13 13:57:29.604,0
2014-11-13 14:10:09.232,57471,1915.7,40.11402,-88.22445,225.116,-1,-1,10,65.41203,1415909268,0.4302063,-1.281891,-0.2372894,5.19014,-51.56068,46.08905,208.1681,211.2505,26,-1.361311,-4.471249,4.151053,-0.2808695,0.07987688,1.350736,-1.430663,-4.130649,3.794791,0.5133898,-0.2900916,-0.07980151,172.17.160.76,10.175.81.193,1,unknown,0,2014-11-13 14:10:05.225,15,2014-11-13 13:57:29.604,0
2014-11-13 14:10:09.266,57472,1915.733,40.11402,-88.22445,225.116,-1,-1,10,65.41203,1415909268,0.0831604,-0.922699,0.008560181,0.7454147,-50.97495,45.92142,207.193,210.2754,26,-1.047854,-4.071726,5.300507,0.3379816,-0.6946064,1.249488,-0.7728454,-4.28441,5.148092,0.4765271,-0.2008199,0.1440961,172.17.160.76,10.175.81.193,1,unknown,0,2014-11-13 14:10:05.225,15,2014-11-13 13:57:29.604,0
2014-11-13 14:10:09.299,57473,1915.767,40.11402,-88.22445,225.116,-1,-1,10,65.41203,1415909268,-0.2437286,-0.557251,0.02558899,-5.249802,-48.97654,46.25656,204.3734,207.4557,26,-1.492626,-4.159842,5.000247,0.5526505,-1.01589,1.110369,-1.219556,-3.991349,5.234104,0.3724714,0.1144142,0.2619186,172.17.160.76,10.175.81.193,1,unknown,0,2014-11-13 14:10:05.225,15,2014-11-13 13:57:29.604,0
2014-11-13 14:10:09.332,57474,1915.8,40.11402,-88.22445,225.116,-1,-1,10,65.41203,1415909268,-0.6571503,-0.4041748,0.1020203,-11.83075,-45.49655,48.03299,200.2752,203.3575,26,-1.753435,-3.809882,3.198548,0.5989226,-1.180994,0.9625871,-1.743485,-4.223548,4.279509,0.1900338,0.3333831,0.2426474,172.17.160.76,10.175.81.193,1,unknown,0,2014-11-13 14:10:05.225,15,2014-11-13 13:57:29.604,0
2014-11-13 14:10:09.366,57475,1915.833,40.11402,-88.22445,225.116,-1,-1,10,65.41203,1415909268,-0.8915863,-0.3681488,0.1954651,-13.82915,-44.18725,49.23962,199.3917,202.474,26,-0.1810129,0.3455468,0.7232437,0.5664423,-1.292963,0.8267663,-1.213755,-2.144418,2.013718,-0.0870248,0.3506743,0.3322227,172.17.160.76,10.175.81.193,1,unknown,0,2014-11-13 14:10:05.225,15,2014-11-13 13:57:29.604,0
2014-11-13 14:10:09.399,57476,1915.867,40.11402,-88.22445,225.116,-1,-1,10,65.41203,1415909268,-0.883728,-0.287262,-0.01864624,-17.03349,-42.43004,50.21164,199.3071,202.3895,26,0.8893563,2.617807,-0.8366076,0.5654926,-1.290318,0.7990894,0.46045,1.625378,-0.02135975,-0.2511404,0.3894814,0.3666545,172.17.160.76,10.175.81.193,1,unknown,0,2014-11-13 14:10:05.225,15,2014-11-13 13:57:29.604,0
2014-11-13 14:10:09.432,57477,1915.9,40.11402,-88.22445,225.116,-1,-1,10,65.41203,1415909268,-0.671936,-0.6717377,-0.3327179,-17.37804,-42.29222,48.53577,196.9484,200.0308,26,2.060068,4.512819,-2.536814,0.5992467,-1.217008,0.8490353,1.767295,4.188639,-2.150584,-0.216363,0.3522974,0.1165846,172.17.160.76,10.175.81.193,1,unknown,0,2014-11-13 14:10:05.225,15,2014-11-13 13:57:29.604,0
2014-11-13 14:10:09.466,57478,1915.933,40.11402,-88.22445,225.116,-1,-1,10,65.41203,1415909268,-0.3799744,-1.00238,-0.4154816,-17.17131,-42.63676,47.4632,195.416,198.4983,26,1.813015,3.228895,-1.893023,0.6665568,-1.094968,0.9762977,2.207696,3.857031,-2.276048,0.01230957,-0.06085281,-0.1729092,172.17.160.76,10.175.81.193,1,unknown,0,2014-11-13 14:10:05.225,15,2014-11-13 13:57:29.604,0
2014-11-13 14:10:09.499,57479,1915.967,40.11402,-88.22445,225.116,-1,-1,10,65.41203,1415909268,-0.3332977,-1.034164,-0.3960724,-15.99984,-43.80824,45.98846,192.4728,195.5551,26,0.03237712,0.8916588,-0.2576118,0.7017964,-1.02361,1.047794,0.4759659,1.490288,-0.6048852,0.09942134,-0.1613406,-0.1580029,172.17.160.76,10.175.81.193,1,unknown,0,2014-11-13 14:10:05.225,15,2014-11-13 13:57:29.604,0
2014-11-13 14:10:09.532,57480,1916,40.11402,-88.22445,225.116,-1,-1,10,65.41203,1415909268,-0.393219,-0.8978119,-0.2467041,-15.00064,-44.66962,45.88791,191.2342,194.3165,26,-0.7790556,0.00459129,0.2789267,0.6915691,-0.9949552,1.04682,-0.5583188,0.2079478,0.2000227,0.07279406,-0.08942472,-0.0507176,172.17.160.76,10.175.81.193,1,unknown,0,2014-11-13 14:10:05.225,15,2014-11-13 13:57:29.604,0
2014-11-13 14:10:09.566,57481,1916.033,40.11402,-88.22445,225.116,-1,-1,10,65.41203,1415909268,-0.4339752,-0.8369446,-0.2634125,-14.86282,-44.87636,45.5527,190.3289,193.4113,26,-0.2866768,0.4406514,0.0819436,0.6672453,-0.9712089,1.028132,-0.6523997,0.169277,0.2797818,0.01188048,-0.0122556,0.04889336,172.17.160.76,10.175.81.193,1,unknown,0,2014-11-13 14:10:05.225,15,2014-11-13 13:57:29.604,0
2014-11-13 14:10:09.599,57482,1916.067,40.11402,-88.22445,225.116,-1,-1,10,65.41203,1415909268,-0.4751282,-0.8387756,-0.3070221,-14.69054,-44.77299,44.51364,190.0174,193.0997,26,0.1216979,0.7580459,-0.2161906,0.656463,-0.9476902,1.020414,-0.07945047,0.773028,-0.07902679,-0.01660676,0.03362953,0.04053077,172.17.160.76,10.175.81.193,1,unknown,0,2014-11-13 14:10:05.225,15,2014-11-13 13:57:29.604,0
2014-11-13 14:10:09.633,57483,1916.1,40.11402,-88.22445,225.116,-1,-1,10,65.41203,1415909268,-0.4221954,-0.8536682,-0.3359222,-15.13847,-44.53181,43.94388,189.6322,192.7146,26,0.3232422,0.6907297,-0.2533902,0.6548544,-0.9293069,1.023931,0.1800037,0.8240623,-0.1996761,-0.07783937,0.008577513,0.02741761,172.17.160.76,10.175.81.193,1,unknown,0,2014-11-13 14:10:05.225,15,2014-11-13 13:57:29.604,0
2014-11-13 14:10:09.666,57484,1916.133,40.11402,-88.22445,225.116,-1,-1,10,65.41203,1415909268,-0.3772583,-0.8618622,-0.3500519,-14.96619,-44.63518,43.30701,188.7586,191.841,26,0.06270972,0.2351795,-0.2314609,0.6665715,-0.9063674,1.041131,0.2405354,0.4264419,-0.2253449,-0.01065335,0.009002828,-0.02159124,172.17.160.76,10.175.81.193,1,unknown,0,2014-11-13 14:10:05.225,15,2014-11-13 13:57:29.604,0
2014-11-13 14:10:09.699,57485,1916.167,40.11402,-88.22445,225.116,-1,-1,10,65.41203,1415909268,-0.355957,-0.8759918,-0.3695221,-15.17291,-45.32427,42.83771,188.1574,191.2398,26,-0.1927889,-0.2483765,-0.1184105,0.6460982,-0.8792854,1.044856,-0.1108756,-0.06252933,-0.1332002,0.02923476,-0.01066637,-0.04658677,172.17.160.76,10.175.81.193,1,unknown,0,2014-11-13 14:10:05.225,15,2014-11-13 13:57:29.604,0
2014-11-13 14:10:09.733,57486,1916.2,40.11402,-88.22445,225.116,-1,-1,10,65.41203,1415909268,-0.3579865,-0.8589783,-0.328064,-14.89726,-46.1512,43.03879,188.5241,191.6065,26,-0.1877742,-0.3742775,-0.04585005,0.6317356,-0.8726328,1.044137,-0.1432796,-0.3052695,-0.05793518,0.02584832,0.0015763,-0.01907038,172.17.160.76,10.175.81.193,1,unknown,0,2014-11-13 14:10:05.225,15,2014-11-13 13:57:29.604,0
2014-11-13 14:10:09.766,57487,1916.233,40.11402,-88.22445,225.116,-1,-1,10,65.41203,1415909268,-0.3731842,-0.8522491,-0.3074493,-14.86281,-45.91001,42.80417,188.8687,191.951,26,-0.1185647,-0.3804879,-0.01960486,0.6255428,-0.8730106,1.043567,-0.1071881,-0.320873,-0.011451,0.02755337,0.005226391,-0.004784913,172.17.160.76,10.175.81.193,1,unknown,0,2014-11-13 14:10:05.225,15,2014-11-13 13:57:29.604,0
2014-11-13 14:10:09.799,57488,1916.267,40.11402,-88.22445,225.116,-1,-1,10,65.41203,1415909268,-0.3725128,-0.8772583,-0.3024292,-14.69054,-45.66882,43.23987,189.5121,192.5945,26,0.2164093,-0.1896027,-0.048514,0.6294612,-0.8888521,1.047774,0.2299504,-0.1364528,-0.05208023,0.008910953,-0.00548214,0.01274357,172.17.160.76,10.175.81.193,1,unknown,0,2014-11-13 14:10:05.225,15,2014-11-13 13:57:29.604,0
2014-11-13 14:10:09.833,57489,1916.3,40.11402,-88.22445,225.116,-1,-1,10,65.41203,1415909268,-0.3706055,-0.8157349,-0.2821198,-14.41489,-45.59991,43.57501,189.8689,192.9512,26,0.3091911,-0.4292696,-0.1212428,0.6422722,-0.9042729,1.054592,0.3308969,-0.2219091,0.03518996,0.03229226,-0.001089741,0.003540623,172.17.160.76,10.175.81.193,1,unknown,0,2014-11-13 14:10:05.225,15,2014-11-13 13:57:29.604,0
2014-11-13 14:10:09.866,57490,1916.333,40.11402,-88.22445,225.116,-1,-1,10,65.41203,1415909268,-0.4059296,-0.835907,-0.2115936,-14.24261,-45.70328,44.21185,189.9777,193.06,26,0.2820751,-0.3913696,-0.310947,0.6529115,-0.9198988,1.059544,0.367456,-0.3632375,-0.1047454,0.01862812,0.0563978,0.01432895,172.17.160.76,10.175.81.193,1,unknown,0,2014-11-13 14:10:05.225,15,2014-11-13 13:57:29.604,0
2014-11-13 14:10:09.899,57491,1916.367,40.11402,-88.22445,225.116,-1,-1,10,65.41203,1415909268,-0.3758545,-0.8462677,-0.2487335,-13.58797,-45.73772,44.91571,190.4041,193.4865,26,0.3975519,-0.06012725,-0.340418,0.6650924,-0.942476,1.077008,0.3832996,-0.1174837,-0.3455254,-0.01837935,0.01320336,0.06676807,172.17.160.76,10.175.81.193,1,unknown,0,2014-11-13 14:10:05.225,15,2014-11-13 13:57:29.604,0
2014-11-13 14:10:09.932,57492,1916.4,40.11402,-88.22445,225.116,-1,-1,10,65.41203,1415909268,-0.4122467,-0.9584351,-0.2458954,-13.00224,-45.28981,45.08328,191.1254,194.2077,26,0.06029477,-0.2005978,-0.2486074,0.6807473,-0.9608636,1.094969,0.1971333,-0.2083211,-0.1436259,0.04355244,0.07813845,0.04641737,172.17.160.76,10.175.81.193,1,unknown,0,2014-11-13 14:10:05.225,15,2014-11-13 13:57:29.604,0
2014-11-13 14:10:09.965,57493,1916.433,40.11402,-88.22445,225.116,-1,-1,10,65.41203,1415909268,-0.3071136,-0.9035339,-0.2475891,-12.96779,-45.531,45.18381,191.3603,194.4427,26,0.04435415,-0.2571394,-0.2796285,0.6786544,-0.964049,1.103006,0.1038476,-0.1723322,-0.3086746,0.006324621,0.01955053,0.005234201,172.17.160.76,10.175.81.193,1,unknown,0,2014-11-13 14:10:05.225,15,2014-11-13 13:57:29.604,0
2014-11-13 14:10:09.999,57494,1916.467,40.11402,-88.22445,225.116,-1,-1,10,65.41203,1415909268,-0.287674,-0.9033966,-0.2922516,-12.93333,-45.22091,45.68658,192.2009,195.2832,26,0.1403848,-0.5826315,-0.03756122,0.6664725,-0.9607263,1.118317,0.1413307,-0.3936775,-0.07011616,0.06208025,-0.01240764,-0.02629844,172.17.160.76,10.175.81.193,1,unknown,0,2014-11-13 14:10:05.225,15,2014-11-13 13:57:29.604,0
2014-11-13 14:10:10.033,57495,1916.5,40.11402,-88.22445,225.116,-1,-1,10,65.41203,1415909268,-0.3763428,-0.8798676,-0.3083191,-12.8644,-45.2209,46.75909,193.0418,196.1242,26,0.3115568,-0.7955411,0.06151742,0.6744356,-0.9788188,1.120963,0.274121,-0.636369,0.02258042,0.07541125,-0.0001610457,-0.06808624,172.17.160.76,10.175.81.193,1,unknown,0,2014-11-13 14:10:05.225,15,2014-11-13 13:57:29.604,0
2014-11-13 14:10:10.066,57496,1916.533,40.11402,-88.22445,225.116,-1,-1,10,65.41203,1415909268,-0.4341736,-0.8879395,-0.2077026,-12.72658,-45.01417,47.42947,193.6144,196.6968,26,0.7585626,-0.7763498,-0.0430191,0.7179011,-1.048471,1.129124,0.7174846,-0.7832136,0.02226952,-0.03637383,0.03778146,-0.06556971,172.17.160.76,10.175.81.193,1,unknown,0,2014-11-13 14:10:05.225,15,2014-11-13 13:57:29.604,0
2014-11-13 14:10:10.099,57497,1916.567,40.11402,-88.22445,225.116,-1,-1,10,65.41203,1415909268,-0.4490051,-0.8748474,-0.1007843,-12.38203,-45.49654,48.70316,194.3871,197.4695,26,0.6408064,-0.3625393,-0.1285021,0.7873629,-1.135289,1.145879,0.8236083,-0.3940194,-0.07267278,-0.08628739,0.03160189,0.04836492,172.17.160.76,10.175.81.193,1,unknown,0,2014-11-13 14:10:05.225,15,2014-11-13 13:57:29.604,0
2014-11-13 14:10:10.133,57498,1916.6,40.11402,-88.22445,225.116,-1,-1,10,65.41203,1415909268,-0.4295044,-0.9393616,-0.07743835,-12.31313,-45.77219,49.97684,194.8409,197.9233,26,0.0912106,-0.3837242,-0.2953312,0.8139966,-1.165568,1.153558,0.5276276,-0.2819869,-0.1707539,-0.08406431,0.03559543,0.07186534,172.17.160.76,10.175.81.193,1,unknown,0,2014-11-13 14:10:05.225,15,2014-11-13 13:57:29.604,0
2014-11-13 14:10:10.166,57499,1916.633,40.11402,-88.22445,225.116,-1,-1,10,65.41203,1415909268,-0.3605804,-0.9255829,-0.1182251,-12.1064,-46.04784,50.17795,194.9981,198.0805,26,-0.1190316,-0.2095205,-0.1747407,0.8181102,-1.180719,1.165365,-0.02432682,-0.2121151,-0.2394385,-0.03233843,-0.02615139,0.0690631,172.17.160.76,10.175.81.193,1,unknown,0,2014-11-13 14:10:05.225,15,2014-11-13 13:57:29.604,0
2014-11-13 14:10:10.199,57500,1916.667,40.11402,-88.22445,225.116,-1,-1,10,65.41203,1415909268,-0.3410034,-0.9386749,-0.1625366,-12.00303,-45.80665,50.68073,195.9874,199.0698,26,0.003244529,-0.1001897,-0.04087606,0.8095444,-1.177238,1.169471,-0.03632391,-0.09432869,-0.1198875,-0.00233892,-0.0150791,0.02611344,172.17.160.76,10.175.81.193,1,unknown,0,2014-11-13 14:10:05.225,15,2014-11-13 13:57:29.604,0
2014-11-13 14:10:10.232,57501,1916.7,40.11402,-88.22445,225.116,-1,-1,10,65.41203,1415909268,-0.3649292,-0.9123993,-0.181839,-11.58956,-45.53101,51.28406,196.3922,199.4746,26,0.02430374,-0.2869146,-0.001601891,0.8113379,-1.180598,1.171105,0.08590546,-0.09347162,0.001729671,0.02683106,0.004097236,-0.04261234,172.17.160.76,10.175.81.193,1,unknown,0,2014-11-13 14:10:05.225,15,2014-11-13 13:57:29.604,0
2014-11-13 14:10:10.266,57502,1916.733,40.11402,-88.22445,225.116,-1,-1,10,65.41203,1415909268,-0.3673706,-0.906311,-0.1081543,-11.34837,-45.35873,51.65277,196.6103,199.6927,26,0.08850963,-0.2375156,-0.06951702,0.8221331,-1.201188,1.172323,0.1636158,-0.2593088,-0.003680673,-0.0169447,0.01931064,0.01056122,172.17.160.76,10.175.81.193,1,unknown,0,2014-11-13 14:10:05.225,15,2014-11-13 13:57:29.604,0
2014-11-13 14:10:10.299,57503,1916.767,40.11402,-88.22445,225.116,-1,-1,10,65.41203,1415909268,-0.3510895,-0.9160614,-0.1056366,-11.03828,-45.25536,51.7533,197.011,200.0934,26,0.0299081,-0.2077575,-0.07232533,0.834846,-1.218813,1.174878,0.110571,-0.1673016,-0.06456108,-0.008883569,0.00360573,0.03205259,172.17.160.76,10.175.81.193,1,unknown,0,2014-11-13 14:10:05.225,15,2014-11-13 13:57:29.604,0
2014-11-13 14:10:10.332,57504,1916.8,40.11402,-88.22445,225.116,-1,-1,10,65.41203,1415909268,-0.3433685,-0.9286957,-0.1129456,-10.72817,-45.15199,51.58572,197.1629,200.2453,21,0.1150294,-0.1871632,-0.01309263,0.8469595,-1.234797,1.178411,0.1648603,-0.08301698,-0.01549357,0.001483339,0.006732572,0.004162357,172.17.160.76,10.175.81.193,1,unknown,0,2014-11-13 14:10:05.225,15,2014-11-13 13:57:29.604,0
2014-11-13 14:10:10.366,57505,1916.833,40.11402,-88.22445,225.116,-1,-1,10,65.41203,1415909268,-0.34758,-0.9494171,-0.07356262,-10.76263,-45.32426,52.02145,197.4116,200.494,21,0.0431006,-0.1826774,0.1549145,0.8604041,-1.251425,1.179624,0.1356491,-0.1511287,0.1095091,0.01987563,-0.01799654,0.03204651,172.17.160.76,10.175.81.193,1,unknown,0,2014-11-13 14:10:05.225,15,2014-11-13 13:57:29.604,0
2014-11-13 14:10:10.399,57506,1916.867,40.11402,-88.22445,225.116,-1,-1,10,65.41203,1415909268,-0.3991089,-0.9178162,-0.1528473,-10.72817,-45.28981,52.59125,197.5019,200.5842,21,-0.09166281,-0.3156512,0.267236,0.8737229,-1.26758,1.175651,-0.003351091,-0.1042343,0.2610038,0.01526987,-0.021731,0.04034017,172.17.160.76,10.175.81.193,1,unknown,0,2014-11-13 14:10:05.225,15,2014-11-13 13:57:29.604,0
2014-11-13 14:10:10.432,57507,1916.9,40.11402,-88.22445,225.116,-1,-1,10,65.41203,1415909268,-0.4008331,-0.8923492,-0.113266,-11.03827,-45.32426,52.62473,197.3562,200.4386,21,0.01514007,-0.339617,0.1955905,0.8781404,-1.277987,1.167474,0.01043421,-0.2882192,0.2398125,-0.02333735,0.001945805,-0.03956147,172.17.160.76,10.175.81.193,1,unknown,0,2014-11-13 14:10:05.225,15,2014-11-13 13:57:29.604,0
2014-11-13 14:10:10.466,57508,1916.933,40.11402,-88.22445,225.116,-1,-1,10,65.41203,1415909268,-0.4265289,-0.8779144,-0.1181183,-11.41728,-45.08308,52.0549,197.2063,200.2887,21,-0.06719954,0.00970882,0.01516351,0.8883352,-1.295859,1.160699,-0.02210566,-0.07123359,0.1264394,-0.02711877,0.0007002979,0.05901633,172.17.160.76,10.175.81.193,1,unknown,0,2014-11-13 14:10:05.225,15,2014-11-13 13:57:29.604,0
2014-11-13 14:10:10.499,57509,1916.967,40.11402,-88.22445,225.116,-1,-1,10,65.41203,1415909268,-0.4353943,-0.8803253,-0.1444244,-11.45174,-44.9108,51.82028,197.0715,200.1538,21,0.108155,-0.04384415,-0.1715345,0.8947344,-1.3013,1.158177,0.03925174,0.07525042,-0.03011174,-0.03999285,0.03815901,-0.01135069,172.17.160.76,10.175.81.193,1,unknown,0,2014-11-13 14:10:05.225,15,2014-11-13 13:57:29.604,0
2014-11-13 14:10:10.533,57510,1917,40.11402,-88.22445,225.116,-1,-1,10,65.41203,1415909268,-0.4023285,-0.9449615,-0.09559631,-11.45174,-44.97971,51.95438,196.8668,199.9491,21,0.08694156,-0.06220132,-0.211888,0.9026719,-1.307111,1.162826,0.1655266,0.003704514,-0.2103432,-0.02800719,0.007451227,0.006652174,172.17.160.76,10.175.81.193,1,unknown,0,2014-11-13 14:10:05.225,15,2014-11-13 13:57:29.604,0
2014-11-13 14:10:10.566,57511,1917.033,40.11402,-88.22445,225.116,-1,-1,10,65.41203,1415909268,-0.3695526,-0.9345551,-0.08610535,-11.45174,-44.9108,52.35657,196.8464,199.9288,21,0.09819368,-0.0163076,-0.04291284,0.911332,-1.314966,1.168103,0.145951,0.02065059,-0.07749436,0.01813506,-0.02484592,-0.009305447,172.17.160.76,10.175.81.193,1,unknown,0,2014-11-13 14:10:05.225,15,2014-11-13 13:57:29.604,0
2014-11-13 14:10:10.599,57512,1917.067,40.11402,-88.22445,225.116,-1,-1,10,65.41203,1415909268,-0.3599243,-0.918457,-0.08615112,-11.58955,-44.97971,52.82581,196.9978,200.0802,21,-0.1056873,-0.1358484,0.01454113,0.92393,-1.324336,1.170056,0.03479904,0.02780008,0.01849088,0.007432122,0.002742614,0.01083836,172.17.160.76,10.175.81.193,1,unknown,0,2014-11-13 14:10:05.225,15,2014-11-13 13:57:29.604,0
2014-11-13 14:10:10.632,57513,1917.1,40.11402,-88.22445,225.116,-1,-1,10,65.41203,1415909268,-0.3441162,-0.9493256,-0.07298279,-11.52065,-44.63515,52.9599,196.9505,200.0328,21,-0.250225,-0.371634,0.1603252,0.918301,-1.323634,1.168266,-0.1617955,-0.2669621,0.08985426,0.01862146,-0.0190448,0.01236183,172.17.160.76,10.175.81.193,1,unknown,0,2014-11-13 14:10:05.225,15,2014-11-13 13:57:29.604,0
2014-11-13 14:10:10.666,57514,1917.133,40.11402,-88.22445,225.116,-1,-1,10,65.41203,1415909268,-0.3748016,-0.9153442,-0.0625,-11.5551,-44.39397,53.06042,197.046,200.1284,21,-0.2849646,-0.3519548,0.3728553,0.9095296,-1.325103,1.161487,-0.2148386,-0.3096239,0.3477626,0.03942051,-0.02332357,0.02763098,172.17.160.76,10.175.81.193,1,unknown,0,2014-11-13 14:10:05.225,15,2014-11-13 13:57:29.604,0
2014-11-13 14:10:10.699,57515,1917.167,40.11402,-88.22445,225.116,-1,-1,10,65.41203,1415909268,-0.4259949,-0.8705444,-0.07723999,-11.65846,-44.15278,52.95984,197.3466,200.429,21,-0.3368622,-0.2409948,0.2887154,0.9030752,-1.324763,1.152846,-0.2458457,-0.2561511,0.391681,0.01886344,-0.001421359,0.03635735,172.17.160.76,10.175.81.193,1,unknown,0,2014-11-13 14:10:05.225,15,2014-11-13 13:57:29.604,0
2014-11-13 14:10:10.732,57516,1917.2,40.11402,-88.22445,225.116,-1,-1,10,65.41203,1415909268,-0.4405365,-0.8604431,-0.1408234,-11.83074,-44.39397,52.79227,197.2753,200.3577,21,-0.2430832,-0.17655,-0.03717134,0.88125,-1.312483,1.137269,-0.2704157,-0.08514164,0.09970589,-0.02925723,0.0405464,0.01123878,172.17.160.76,10.175.81.193,1,unknown,0,2014-11-13 14:10:05.225,15,2014-11-13 13:57:29.604,0
2014-11-13 14:10:10.766,57517,1917.233,40.11402,-88.22445,225.116,-1,-1,10,65.41203,1415909268,-0.4051208,-0.879776,-0.1406403,-12.07192,-44.84187,52.82574,197.1521,200.2345,21,-0.1108458,-0.1586317,-0.04818697,0.8674851,-1.303087,1.133811,-0.1207813,-0.1042881,-0.03469583,-0.02728944,0.03808098,-0.03702253,172.17.160.76,10.175.81.193,1,unknown,0,2014-11-13 14:10:05.225,15,2014-11-13 13:57:29.604,0
2014-11-13 14:10:10.799,57518,1917.267,40.11402,-88.22445,225.116,-1,-1,10,65.41203,1415909268,-0.4335938,-0.881012,-0.1072693,-12.17529,-44.80743,52.85931,197.3557,200.438,21,0.08557908,0.0418063,-0.08714183,0.8639175,-1.301423,1.133758,0.06685121,-0.01711169,-0.01689301,-0.003885661,0.02115181,-0.01051299,172.17.160.76,10.175.81.193,1,unknown,0,2014-11-13 14:10:05.225,15,2014-11-13 13:57:29.604,0
2014-11-13 14:10:10.833,57519,1917.3,40.11402,-88.22445,225.116,-1,-1,10,65.41203,1415909268,-0.4320679,-0.901947,-0.06761169,-11.9341,-44.70406,52.69171,197.4406,200.523,21,0.04442126,0.1940827,-0.1870266,0.8745196,-1.306901,1.137169,0.123928,0.1826273,-0.1572273,-0.0286149,0.0211103,0.03015991,172.17.160.76,10.175.81.193,1,unknown,0,2014-11-13 14:10:05.225,15,2014-11-13 13:57:29.604,0
2014-11-13 14:10:10.866,57520,1917.333,40.11402,-88.22445,225.116,-1,-1,10,65.41203,1415909268,-0.4074554,-0.9107056,-0.05990601,-11.65845,-44.42842,52.22247,197.282,200.3644,21,-0.1550556,0.3286293,-0.1112674,0.8798364,-1.303331,1.14203,-0.01781286,0.3667725,-0.1228188,-0.007099314,-0.01257864,0.04446271,172.17.160.76,10.175.81.193,1,unknown,0,2014-11-13 14:10:05.225,15,2014-11-13 13:57:29.604,0
2014-11-13 14:10:10.899,57521,1917.367,40.11402,-88.22445,225.116,-1,-1,10,65.41203,1415909268,-0.4230804,-0.8715057,-0.05023193,-11.58955,-44.70406,51.68625,197.0022,200.0846,21,-0.3795708,0.6247041,-0.1757409,0.8665456,-1.272969,1.14361,-0.2596658,0.5996952,-0.1079465,-0.01553347,0.0308167,0.06583713,172.17.160.76,10.175.81.193,1,unknown,0,2014-11-13 14:10:05.225,15,2014-11-13 13:57:29.604,0
2014-11-13 14:10:10.932,57522,1917.4,40.11402,-88.22445,225.116,-1,-1,10,65.41203,1415909268,-0.4266663,-0.8346405,-0.07688904,-11.72737,-44.91079,51.6192,196.7448,199.8271,21,-0.482976,0.9734014,-0.441011,0.8374508,-1.223533,1.14632,-0.4069744,0.9020587,-0.3202216,-0.05536751,0.045059,0.07984277,172.17.160.76,10.175.81.193,1,unknown,0,2014-11-13 14:10:05.225,15,2014-11-13 13:57:29.604,0
2014-11-13 14:10:10.966,57523,1917.433,40.11402,-88.22445,225.116,-1,-1,10,65.41203,1415909268,-0.3662567,-0.8645477,-0.1314087,-11.58955,-45.46208,50.47961,196.0615,199.1439,21,-0.4798244,1.230614,-0.7135307,0.7938697,-1.150216,1.15553,-0.4420169,1.230157,-0.6357458,-0.04928193,0.06420954,0.06452876,172.17.160.76,10.175.81.193,1,unknown,0,2014-11-13 14:10:05.225,15,2014-11-13 13:57:29.604,0
2014-11-13 14:10:10.999,57524,1917.467,40.11402,-88.22445,225.116,-1,-1,10,65.41203,1415909268,-0.3200684,-0.8253021,-0.1821747,-11.00381,-45.77219,49.03836,195.5162,198.5986,21,-0.3673732,1.569943,-0.7981449,0.7439213,-1.062077,1.169306,-0.3316582,1.580033,-0.7309115,-0.0009197467,0.0684441,0.05805963,172.17.160.76,10.175.81.193,1,unknown,0,2014-11-13 14:10:05.225,15,2014-11-13 13:57:29.604,0
2014-11-13 14:10:11.032,57525,1917.5,40.11402,-88.22445,225.116,-1,-1,10,65.41203,1415909268,-0.2834625,-0.9409027,-0.2217712,-10.59035,-45.91,48.30096,195.1859,198.2682,21,-0.3145753,1.361983,-1.03721,0.6877538,-0.9620604,1.18575,-0.3278291,1.542256,-0.9497902,-0.01193511,0.1014789,0.03260621,172.17.160.76,10.175.81.193,1,unknown,0,2014-11-13 14:10:05.225,15,2014-11-13 13:57:29.604,0
2014-11-13 14:10:11.066,57526,1917.533,40.11402,-88.22445,225.116,-1,-1,10,65.41203,1415909268,-0.2303925,-0.8842926,-0.2358093,-9.832321,-46.66801,46.55804,194.5544,197.6368,21,-0.2639816,0.9987786,-0.5849974,0.6025158,-0.8261664,1.209439,-0.1345699,1.30134,-0.7585928,0.09054144,-0.02573345,-0.01798655,172.17.160.76,10.175.81.193,1,unknown,0,2014-11-13 14:10:05.225,15,2014-11-13 13:57:29.604,0
2014-11-13 14:10:11.099,57527,1917.567,40.11402,-88.22445,225.116,-1,-1,10,65.41203,1415909268,-0.1842651,-0.9263763,-0.1392822,-9.039856,-47.80504,45.65305,194.3169,197.3993,21,-0.3997194,1.174839,-0.7778132,0.5538565,-0.7473987,1.21848,-0.2320286,1.056582,-0.6724754,-0.02426208,0.04404463,0.04132029,172.17.160.76,10.175.81.193,1,unknown,0,2014-11-13 14:10:05.225,15,2014-11-13 13:57:29.604,0
2014-11-13 14:10:11.132,57528,1917.6,40.11402,-88.22445,225.116,-1,-1,10,65.41203,1415909268,-0.1600952,-0.9669342,-0.1616516,-8.55748,-48.28741,44.71457,194.1106,197.1929,21,-0.6280751,1.383095,-0.6516681,0.5096763,-0.6827204,1.224087,-0.3414227,1.24085,-0.7613214,0.03011958,0.01411974,0.1243583,172.17.160.76,10.175.81.193,1,unknown,0,2014-11-13 14:10:05.225,15,2014-11-13 13:57:29.604,0
2014-11-13 14:10:11.166,57529,1917.633,40.11402,-88.22445,225.116,-1,-1,10,65.41203,1415909268,-0.1217346,-0.940155,-0.2644196,-7.661644,-48.97652,43.44095,193.7955,196.8779,21,-0.5993114,1.718479,-0.5597837,0.363181,-0.4528608,1.213761,-0.623099,1.729163,-0.5581368,0.007915107,0.0282456,0.08592076,172.17.160.76,10.175.81.193,1,unknown,0,2014-11-13 14:10:05.225,15,2014-11-13 13:57:29.604,0
2014-11-13 14:10:11.199,57530,1917.667,40.11402,-88.22445,225.116,-1,-1,10,65.41203,1415909268,0.003570557,-1.085907,-0.5037689,-6.869179,-49.63117,40.99411,192.7369,195.8193,21,-0.2136478,1.878076,-0.08378198,0.3135,-0.3511448,1.207276,-0.2560207,1.921326,-0.2740226,0.07243951,-0.09723984,-0.0308155,172.17.160.76,10.175.81.193,1,unknown,0,2014-11-13 14:10:05.225,15,2014-11-13 13:57:29.604,0
