time,timestamp,recordtime,lat,long,alt,speed,course,verticalAccuracy,horizontalAccuracy,locTimeStamp,accelerationX,accelerationY,accelerationZ,HeadingX,HeadingY,HeadingZ,TrueHeading,MagneticHeading,HeadingAccuracy,RotationX,RotationY,RotationZ,motionYaw,motionRoll,motionPitch,motionRotationRateX,motionRotationRateY,motionRotationRateZ,motionUserAccelerationX,motionUserAccelerationY,motionUserAccelerationZ,en0,pdp_ip0,DeviceOrientation,Activity,Activity Confidence,Activity Start,Steps,Last Step Date,State
2014-11-15 18:18:23.238,47829,1594.3,40.10502,-88.22189,235.5691,0.6,20.03906,12,30,1416097103,-0.2451172,-0.6378326,0.7223206,-10.45796,-35.71255,-6.392029,197.4976,200.5799,15,-0.01770363,-0.1106932,-0.1671693,0.4511983,-2.819051,0.5978114,0.04210791,-0.007559585,-0.168637,0.004543275,-0.05256744,-0.08027115,172.17.160.76,10.64.29.0,1,unknown,2,2014-11-15 18:18:11.291,134,2014-11-15 18:16:20.024,3
2014-11-15 18:18:23.269,47830,1594.333,40.10502,-88.22189,235.5691,0.6,20.03906,12,30,1416097103,-0.240921,-0.6467743,0.7541199,-10.18304,-36.12549,-6.191345,196.9765,200.0588,15,-0.01770363,-0.1106932,-0.1671693,0.4511983,-2.819051,0.5978114,0.04210791,-0.007559585,-0.168637,0.004543275,-0.05256744,-0.08027115,172.17.160.76,10.64.29.0,1,unknown,2,2014-11-15 18:18:11.291,134,2014-11-15 18:16:20.024,3
2014-11-15 18:18:23.303,47831,1594.367,40.10502,-88.22189,235.5691,0.6,20.03906,12,30,1416097103,-0.2840424,-0.6650543,0.8202209,-10.59541,-36.1255,-5.5224,197.3313,200.4136,15,-0.06216324,-0.3642975,0.01742107,0.4595303,-2.834831,0.5965145,0.03286677,-0.3155746,-0.01100227,-0.001169746,-0.1114096,0.004077775,172.17.160.76,10.64.29.0,1,unknown,2,2014-11-15 18:18:11.291,134,2014-11-15 18:16:20.024,3
2014-11-15 18:18:23.337,47832,1594.4,40.10502,-88.22189,235.5691,0.6,20.03906,12,30,1416097103,-0.2632599,-0.5965271,0.8000488,-10.56105,-36.15991,-5.756531,197.244,200.3263,15,-0.1050159,-0.2264177,0.1223328,0.4571965,-2.841493,0.5966223,-0.05801665,-0.2115946,0.1045256,-0.03949824,-0.1032028,0.02995454,172.17.160.76,10.64.29.0,1,unknown,2,2014-11-15 18:18:11.291,134,2014-11-15 18:16:20.024,3
2014-11-15 18:18:23.370,47833,1594.433,40.10502,-88.22189,235.5691,0.6,20.03906,12,30,1416097103,-0.1936951,-0.6595459,0.7480164,-10.69851,-36.09109,-5.689636,197.4474,200.5297,15,-0.04732065,-0.2565748,0.07206833,0.4522881,-2.843882,0.5966644,-0.01005783,-0.1658073,0.1205092,0.00342148,-0.02531768,-0.006829161,172.17.160.76,10.64.29.0,1,unknown,2,2014-11-15 18:18:11.291,134,2014-11-15 18:16:20.024,3
2014-11-15 18:18:23.403,47834,1594.467,40.10502,-88.22189,235.5691,0.6,20.03906,12,30,1416097103,-0.1740112,-0.6835175,0.7283936,-10.3205,-35.8502,-5.789978,197.1201,200.2024,15,-0.02469603,-0.3242489,-0.02390613,0.4505498,-2.849382,0.595338,0.04456988,-0.2516499,0.01264285,0.04481491,-0.09875727,-0.04484499,172.17.160.76,10.64.29.0,1,unknown,2,2014-11-15 18:18:11.291,134,2014-11-15 18:16:20.024,3
2014-11-15 18:18:23.437,47835,1594.5,40.10502,-88.22189,235.5691,0.6,20.03906,12,30,1416097103,-0.1512146,-0.6735687,0.6761017,-10.25178,-35.8502,-5.388611,197.093,200.1753,15,-0.1854846,-0.2160468,-0.05776317,0.4512548,-2.86129,0.5957478,-0.07147187,-0.1795993,-0.02157226,0.0524901,-0.1106556,-0.09731942,172.17.160.76,10.64.29.0,1,unknown,2,2014-11-15 18:18:11.291,134,2014-11-15 18:16:20.024,3
2014-11-15 18:18:23.470,47836,1594.533,40.10502,-88.22189,235.5691,0.6,20.03906,12,30,1416097103,-0.162796,-0.6180267,0.7110138,-9.908134,-35.57491,-5.187927,196.6844,199.7667,15,-0.2789898,-0.1592826,-0.1452171,0.451611,-2.864337,0.5986686,-0.1789064,-0.1183942,-0.08453664,0.07489915,-0.1100256,-0.118437,172.17.160.76,10.64.29.0,1,unknown,2,2014-11-15 18:18:11.291,134,2014-11-15 18:16:20.024,3
2014-11-15 18:18:23.503,47837,1594.567,40.10502,-88.22189,235.5691,0.6,20.03906,12,30,1416097103,-0.151947,-0.6280518,0.6778564,-9.770679,-35.71256,-5.054199,196.6376,199.7199,15,-0.2894579,-0.1118517,-0.1969408,0.454679,-2.868634,0.6063025,-0.2308259,-0.07019192,-0.1774989,0.05873591,-0.04819382,-0.08032309,172.17.160.76,10.64.29.0,1,unknown,2,2014-11-15 18:18:11.291,134,2014-11-15 18:16:20.024,3
2014-11-15 18:18:23.536,47838,1594.6,40.10502,-88.22189,235.5691,0.6,20.03906,12,30,1416097103,-0.1428833,-0.6503448,0.7299042,-9.942505,-35.95345,-5.622803,196.6187,199.701,15,-0.2349113,-0.07186753,-0.2457626,0.4607559,-2.8728,0.6168572,-0.2189343,0.01774999,-0.2099864,0.08074411,-0.06154023,-0.1132538,172.17.160.76,10.64.29.0,1,unknown,2,2014-11-15 18:18:11.291,134,2014-11-15 18:16:20.024,3
2014-11-15 18:18:23.569,47839,1594.633,40.10502,-88.22189,235.5691,0.6,20.03906,12,30,1416097103,-0.1731873,-0.6610718,0.7307892,-9.908134,-35.78138,-5.990723,196.6007,199.683,15,-0.1496798,-0.1686548,-0.2529604,0.4671447,-2.87671,0.6237723,-0.1368135,-0.04305942,-0.2371513,0.06961124,-0.06624366,-0.05346794,172.17.160.76,10.64.29.0,1,unknown,2,2014-11-15 18:18:11.291,134,2014-11-15 18:16:20.024,3
2014-11-15 18:18:23.603,47840,1594.667,40.10502,-88.22189,235.5691,0.6,20.03906,12,30,1416097103,-0.2152405,-0.653656,0.8036346,-9.736313,-35.67815,-6.358643,196.3633,199.4456,15,-0.06241437,-0.2258073,-0.2174977,0.4771848,-2.88694,0.6291872,-0.03674304,-0.1470931,-0.2179058,0.01853491,-0.06820474,-0.05052951,172.17.160.76,10.64.29.0,1,unknown,2,2014-11-15 18:18:11.291,134,2014-11-15 18:16:20.024,3
2014-11-15 18:18:23.636,47841,1594.7,40.10502,-88.22189,235.5691,0.6,20.03906,12,30,1416097103,-0.2768097,-0.7280731,0.9164276,-8.671021,-35.23079,-6.39209,196.2441,199.3264,15,0.03529594,-0.2547463,-0.1033759,0.4838539,-2.895963,0.6294749,0.08023272,-0.189009,-0.1325846,-0.01867956,-0.06493561,0.0195606,172.17.160.76,10.64.29.0,1,unknown,2,2014-11-15 18:18:11.291,134,2014-11-15 18:16:20.024,3
2014-11-15 18:18:23.670,47842,1594.733,40.10502,-88.22189,235.5691,0.6,20.03906,12,30,1416097103,-0.198822,-0.6133881,0.9135437,-8.671021,-35.50609,-6.258301,196.1596,199.2419,15,-0.04508625,0.007188937,0.1052934,0.4861037,-2.901696,0.6255904,0.08401384,0.01233922,0.07863486,-0.07988675,-0.1781112,0.1614491,172.17.160.76,10.64.29.0,1,unknown,2,2014-11-15 18:18:11.291,134,2014-11-15 18:16:20.024,3
2014-11-15 18:18:23.702,47843,1594.767,40.10502,-88.22189,235.5691,0.6,20.03906,12,30,1416097103,-0.1627045,-0.3991699,0.843811,-8.602287,-35.57491,-6.258301,194.4674,197.5497,15,-0.1111398,0.04224785,0.1004179,0.4832348,-2.898467,0.6249411,-0.04399791,0.1009743,0.1294705,-0.003584424,-0.02833858,0.1263973,172.17.160.76,10.64.29.0,1,unknown,2,2014-11-15 18:18:11.291,134,2014-11-15 18:16:20.024,3
2014-11-15 18:18:23.737,47844,1594.8,40.10502,-88.22189,235.5691,0.6,20.03906,12,30,1416097103,-0.1277466,-0.5485229,0.7625732,-8.602295,-35.57491,-5.990784,194.5212,197.6035,15,0.2666501,-0.1026702,-0.07159696,0.4805125,-2.894166,0.6220365,0.2271037,0.00102587,-0.003694818,0.04252726,0.1841624,0.0258229,172.17.160.76,10.64.29.0,1,unknown,2,2014-11-15 18:18:11.291,134,2014-11-15 18:16:20.024,3
2014-11-15 18:18:23.770,47845,1594.833,40.10502,-88.22189,235.5691,0.6,20.03906,12,30,1416097103,-0.112915,-0.6858063,0.6695099,-8.43047,-35.88461,-5.689758,194.0383,197.1207,15,0.2375947,-0.08920152,0.02199318,0.4884294,-2.90108,0.6077917,0.4159002,-0.07385049,-0.05787029,0.07623337,-0.03694572,-0.05782573,172.17.160.76,10.64.29.0,1,unknown,2,2014-11-15 18:18:11.291,134,2014-11-15 18:16:20.024,3
2014-11-15 18:18:23.803,47846,1594.867,40.10502,-88.22189,235.5691,0.6,20.03906,12,30,1416097103,-0.02114868,-0.6334534,0.679657,-7.983734,-35.98785,-5.388672,193.12,196.2023,15,-0.05329278,0.005323659,-0.001895372,0.4904643,-2.903079,0.598431,0.2215991,0.008913308,0.05581012,0.1075861,-0.1332322,-0.1396071,172.17.160.76,10.64.29.0,1,unknown,2,2014-11-15 18:18:11.291,134,2014-11-15 18:16:20.024,3
2014-11-15 18:18:23.837,47847,1594.9,40.10502,-88.22189,235.5691,0.6,20.03906,12,30,1416097103,-0.04270935,-0.522644,0.7245331,-7.846275,-36.26315,-5.121033,192.6373,195.7196,15,-0.211684,-0.006373477,-0.1542173,0.4902258,-2.901127,0.597088,-0.08615162,0.08060468,-0.03819343,0.1758001,-0.07121665,-0.1235249,172.17.160.76,10.64.29.0,1,unknown,2,2014-11-15 18:18:11.291,134,2014-11-15 18:16:20.024,3
2014-11-15 18:18:23.870,47848,1594.933,40.10502,-88.22189,235.5691,0.6,20.03906,12,30,1416097103,-0.05218506,-0.5844421,0.7738647,-7.949371,-35.88461,-5.28833,192.8873,195.9696,15,-0.158269,-0.05352208,-0.2034937,0.4933967,-2.901049,0.601971,-0.1284446,0.03077921,-0.1667369,0.1536456,0.04362409,-0.07595747,172.17.160.76,10.64.29.0,1,unknown,2,2014-11-15 18:18:11.291,134,2014-11-15 18:16:20.024,3
2014-11-15 18:18:23.908,47849,1594.967,40.10502,-88.22189,235.5691,0.6,20.03906,12,30,1416097103,-0.1583099,-0.5867767,0.8426056,-8.155556,-36.02226,-5.288391,193.1614,196.2437,15,-0.2137083,-0.06306578,-0.2043979,0.5030226,-2.905986,0.6094738,-0.1294901,0.007231233,-0.1944423,0.1144531,-0.03745769,-0.003717412,172.17.160.76,10.64.29.0,1,unknown,2,2014-11-15 18:18:11.291,134,2014-11-15 18:16:20.024,3
2014-11-15 18:18:23.936,47850,1595,40.10502,-88.22189,235.5691,0.6,20.03906,12,30,1416097103,-0.2143097,-0.5437164,0.8470001,-7.743187,-35.47167,-5.756653,192.6567,195.739,15,-0.2243881,-0.0800461,-0.2023243,0.5066223,-2.908028,0.6133403,-0.1647072,-0.00330556,-0.1848126,0.05756203,-0.02734895,0.03641306,172.17.160.76,10.64.29.0,1,unknown,2,2014-11-15 18:18:11.291,134,2014-11-15 18:16:20.024,3
2014-11-15 18:18:23.969,47851,1595.033,40.10502,-88.22189,235.5691,0.6,20.03906,12,30,1416097103,-0.2534943,-0.5447998,0.808136,-7.571365,-35.36843,-6.325195,192.3989,195.4812,15,-0.1231209,-0.1556612,-0.219024,0.5143859,-2.914262,0.6203638,-0.09436441,-0.08527345,-0.2003686,-0.04397361,0.04112427,0.0358349,172.17.160.76,10.64.29.0,1,unknown,2,2014-11-15 18:18:11.291,134,2014-11-15 18:16:20.024,3
2014-11-15 18:18:24.003,47852,1595.067,40.10502,-88.22189,235.5691,0.6,20.03906,12,30,1416097103,-0.2794952,-0.6313019,0.8061981,-6.884079,-35.29959,-6.458984,191.3699,194.4522,15,-0.02304273,-0.1351544,-0.1704625,0.5213491,-2.92101,0.6225124,0.02179458,-0.08522804,-0.1870041,-0.08819004,0.02846691,0.02278993,172.17.160.76,10.64.29.0,1,unknown,2,2014-11-15 18:18:11.291,134,2014-11-15 18:16:20.024,3
2014-11-15 18:18:24.036,47853,1595.1,40.10502,-88.22189,235.5691,0.6,20.03906,12,30,1416097103,-0.2169189,-0.6575775,0.8057098,-6.780983,-35.54047,-6.693115,191.3386,194.4209,15,-0.02242089,-0.0233261,0.005268531,0.5257932,-2.925058,0.6220497,0.04274474,-0.007661194,-0.0444356,-0.1048922,-0.04859967,0.01249042,172.17.160.76,10.64.29.0,1,unknown,2,2014-11-15 18:18:11.291,134,2014-11-15 18:16:20.024,3
2014-11-15 18:18:24.072,47854,1595.133,40.10501,-88.2219,236.2738,0.66,332.5781,12,10,1416097104,-0.1055145,-0.5944214,0.7782898,-6.780983,-35.60929,-6.492432,191.0348,194.1171,15,-0.1900365,0.08702039,0.1147484,0.5219742,-2.918901,0.6207963,-0.03659826,0.1595896,0.1488703,-0.009256362,-0.06753261,0.006871993,172.17.160.76,10.64.29.0,1,unknown,2,2014-11-15 18:18:11.291,134,2014-11-15 18:16:20.024,3
2014-11-15 18:18:24.103,47855,1595.167,40.10501,-88.2219,236.2738,0.66,332.5781,12,10,1416097104,-0.06565857,-0.5366364,0.7559814,-7.055897,-35.26518,-6.760071,191.5904,194.6727,15,-0.2229399,0.05367282,0.05843748,0.5180547,-2.913471,0.6219701,-0.1260958,0.1520521,0.1300591,0.05910328,-0.03258165,0.001093786,172.17.160.76,10.64.29.0,1,unknown,2,2014-11-15 18:18:11.291,134,2014-11-15 18:16:20.024,3
2014-11-15 18:18:24.137,47856,1595.2,40.10501,-88.2219,236.2738,0.66,332.5781,12,10,1416097104,-0.05021667,-0.5665741,0.7577209,-7.158985,-35.23077,-6.592834,191.8844,194.9667,15,-0.148966,-0.03257046,-0.101516,0.5134605,-2.90633,0.6271711,-0.1300123,0.07879017,-0.004058909,0.1230792,0.0502202,-0.03140501,172.17.160.76,10.64.29.0,1,unknown,2,2014-11-15 18:18:11.291,134,2014-11-15 18:16:20.024,3
2014-11-15 18:18:24.169,47857,1595.233,40.10501,-88.2219,236.2738,0.66,332.5781,12,10,1416097104,-0.1585541,-0.6362915,0.7657776,-6.884071,-35.64371,-6.459045,191.4809,194.5632,15,-0.1446227,-0.1275196,-0.1519219,0.5153363,-2.906261,0.6303788,-0.07002307,0.004577601,-0.1193145,0.1381354,0.02287673,-0.02781785,172.17.160.76,10.64.29.0,1,unknown,2,2014-11-15 18:18:11.291,134,2014-11-15 18:16:20.024,3
2014-11-15 18:18:24.202,47858,1595.267,40.10501,-88.2219,236.2738,0.66,332.5781,12,10,1416097104,-0.2411041,-0.6277618,0.7786713,-6.609161,-35.85019,-6.860413,190.9182,194.0005,15,-0.1830937,-0.1272687,-0.1209935,0.5194902,-2.910259,0.6336257,-0.09776588,-0.07945032,-0.132391,0.05084365,-0.02836702,-0.02198262,172.17.160.76,10.64.29.0,1,unknown,2,2014-11-15 18:18:11.291,134,2014-11-15 18:16:20.024,3
2014-11-15 18:18:24.238,47859,1595.3,40.10501,-88.2219,236.2738,0.66,332.5781,12,10,1416097104,-0.2380219,-0.630188,0.7907104,-6.677891,-35.91901,-6.860413,190.9182,194.0005,15,-0.1609021,-0.004361725,-0.02489603,0.5229729,-2.91421,0.6400319,-0.09692822,0.02651295,-0.029934,-0.07750497,-0.03537785,-0.002774989,172.17.160.76,10.64.29.0,1,unknown,2,2014-11-15 18:18:11.291,134,2014-11-15 18:16:20.024,3
2014-11-15 18:18:24.271,47860,1595.333,40.10501,-88.2219,236.2738,0.66,332.5781,12,10,1416097104,-0.1912689,-0.5859222,0.8071136,-6.815342,-35.2996,-7.127991,191.2686,194.3509,15,-0.1748312,0.04266331,0.01043267,0.5225732,-2.912619,0.6419976,-0.1044492,0.08947355,0.005454554,-0.05623449,-0.03139146,0.01071296,172.17.160.76,10.64.29.0,1,unknown,2,2014-11-15 18:18:11.291,134,2014-11-15 18:16:20.024,3
2014-11-15 18:18:24.303,47861,1595.367,40.10501,-88.2219,236.2738,0.66,332.5781,12,10,1416097104,-0.1502533,-0.5833282,0.8022461,-6.849705,-35.47167,-7.161438,191.2737,194.356,15,-0.1184081,0.06625199,0.04219006,0.519253,-2.905924,0.6455016,-0.0800733,0.1292085,0.06289242,0.009679954,0.02336735,0.0261689,172.17.160.76,10.64.29.0,1,unknown,2,2014-11-15 18:18:11.291,134,2014-11-15 18:16:20.024,3
2014-11-15 18:18:24.338,47862,1595.4,40.10501,-88.2219,236.2738,0.66,332.5781,12,10,1416097104,-0.1124725,-0.6201172,0.7597961,-6.815342,-35.2996,-7.596252,191.3346,194.4169,15,-0.06817772,0.04994439,-0.003727627,0.5171661,-2.900726,0.6462129,-0.007489506,0.1278775,0.03183055,0.04805148,0.01246083,0.02313958,172.17.160.76,10.64.29.0,1,unknown,2,2014-11-15 18:18:11.291,134,2014-11-15 18:16:20.024,3
2014-11-15 18:18:24.373,47863,1595.433,40.10501,-88.2219,236.2738,0.66,332.5781,12,10,1416097104,-0.1096497,-0.6203003,0.7725067,-6.849709,-35.33401,-7.830322,191.3506,194.4329,15,-0.1019961,-0.004007525,-0.1153407,0.5174749,-2.896543,0.6471667,-0.04138433,0.1007298,-0.04779675,0.09053639,-0.02733589,-0.01727811,172.17.160.76,10.64.29.0,1,unknown,2,2014-11-15 18:18:11.291,134,2014-11-15 18:16:20.024,3
2014-11-15 18:18:24.404,47864,1595.467,40.10501,-88.2219,236.2738,0.66,332.5781,12,10,1416097104,-0.1668396,-0.6452637,0.7455902,-6.437347,-35.12754,-7.562744,191.3506,194.433,15,-0.1296954,-0.08175532,-0.141122,0.5204547,-2.896435,0.6489833,-0.03802907,0.03326472,-0.117161,0.08371618,-0.01592358,-0.0003700171,172.17.160.76,10.64.29.0,1,unknown,2,2014-11-15 18:18:11.291,134,2014-11-15 18:16:20.024,3
2014-11-15 18:18:24.438,47865,1595.5,40.10501,-88.2219,236.2738,0.66,332.5781,12,10,1416097104,-0.2000732,-0.6303406,0.7556152,-6.506073,-35.33401,-7.830322,191.3438,194.4261,15,-0.1937159,-0.03367461,-0.1098461,0.5244358,-2.899055,0.6516784,-0.08709714,-0.01348161,-0.1193465,0.02410945,-0.03874193,-0.02620629,172.17.160.76,10.64.29.0,1,unknown,2,2014-11-15 18:18:11.291,134,2014-11-15 18:16:20.024,3
2014-11-15 18:18:24.471,47866,1595.533,40.10501,-88.2219,236.2738,0.66,332.5781,12,10,1416097104,-0.1778717,-0.6048584,0.7485046,-6.265514,-35.43725,-8.064514,191.3172,194.3995,15,-0.2118918,0.002662628,-0.08304961,0.5269077,-2.899814,0.6559696,-0.1436644,0.05271513,-0.0805728,-0.01033543,-0.02041265,-0.013792,172.17.160.76,10.64.29.0,1,unknown,2,2014-11-15 18:18:11.291,134,2014-11-15 18:16:20.024,3
2014-11-15 18:18:24.504,47867,1595.567,40.10501,-88.2219,236.2738,0.66,332.5781,12,10,1416097104,-0.1480865,-0.6423187,0.7606964,-5.887508,-35.74696,-8.432434,191.247,194.3293,15,-0.1447569,-0.03775777,-0.08457534,0.5288375,-2.898169,0.6630909,-0.09894869,0.03473974,-0.06597431,0.02784194,-0.002257414,-0.01817041,172.17.160.76,10.64.29.0,1,unknown,2,2014-11-15 18:18:11.291,134,2014-11-15 18:16:20.024,3
2014-11-15 18:18:24.536,47868,1595.6,40.10501,-88.2219,236.2738,0.66,332.5781,12,10,1416097104,-0.1296387,-0.6563721,0.7547913,-5.715691,-35.71254,-8.532776,191.2007,194.283,15,-0.1415787,-0.04729082,-0.08039151,0.5300177,-2.898372,0.6649653,-0.07230301,0.0230295,-0.06719731,0.04635983,-0.03354192,0.0002156718,172.17.160.76,10.64.29.0,1,unknown,2,2014-11-15 18:18:11.291,134,2014-11-15 18:16:20.024,3
2014-11-15 18:18:24.571,47869,1595.633,40.10501,-88.2219,236.2738,0.66,332.5781,12,10,1416097104,-0.150589,-0.6418304,0.7527771,-5.578232,-35.50608,-8.733459,191.1069,194.1892,15,-0.2107698,-0.0890332,-0.1249345,0.5381383,-2.908516,0.6767841,-0.1383435,-0.007986897,-0.09684552,0.04517595,-0.02921315,-0.01249356,172.17.160.76,10.64.29.0,1,unknown,2,2014-11-15 18:18:11.291,134,2014-11-15 18:16:20.024,3
2014-11-15 18:18:24.602,47870,1595.667,40.10501,-88.2219,236.2738,0.66,332.5781,12,10,1416097104,-0.175415,-0.6349335,0.7821198,-5.543869,-35.60931,-8.967529,191.0128,194.0951,15,-0.1947277,-0.06361866,-0.1354755,0.5434209,-2.91464,0.6823656,-0.1414657,-0.01669879,-0.124481,0.01797949,-0.008193786,0.009916408,172.17.160.76,10.64.29.0,1,unknown,2,2014-11-15 18:18:11.291,134,2014-11-15 18:16:20.024,3
2014-11-15 18:18:24.638,47871,1595.7,40.10501,-88.2219,236.2738,0.66,332.5781,12,10,1416097104,-0.1589508,-0.6560059,0.7600403,-5.440773,-35.50608,-8.733459,190.9659,194.0482,15,-0.1394202,-0.02925962,-0.08455057,0.5464118,-2.916114,0.6864559,-0.09038134,0.0303333,-0.08408841,-0.002481954,-0.00113367,0.02820201,172.17.160.76,10.64.29.0,1,unknown,2,2014-11-15 18:18:11.291,134,2014-11-15 18:16:20.024,3
2014-11-15 18:18:24.669,47872,1595.733,40.10501,-88.2219,236.2738,0.66,332.5781,12,10,1416097104,-0.1809845,-0.6196594,0.7685242,-5.200222,-35.54049,-8.900696,190.8558,193.9381,15,-0.1714013,-0.04521462,-0.08876076,0.5493682,-2.916645,0.6897244,-0.09572466,0.03782081,-0.07766019,0.01507195,-0.02488445,0.01038886,172.17.160.76,10.64.29.0,1,unknown,2,2014-11-15 18:18:11.291,134,2014-11-15 18:16:20.024,3
2014-11-15 18:18:24.703,47873,1595.767,40.10501,-88.2219,236.2738,0.66,332.5781,12,10,1416097104,-0.182663,-0.6219025,0.7512207,-5.268948,-35.67815,-8.900696,190.8042,193.8865,15,-0.1575593,-0.03346901,-0.08025888,0.5520437,-2.919157,0.6905916,-0.1074749,0.0197908,-0.07346575,0.0002738709,0.005233692,0.01966801,172.17.160.76,10.64.29.0,1,unknown,2,2014-11-15 18:18:11.291,134,2014-11-15 18:16:20.024,3
2014-11-15 18:18:24.736,47874,1595.8,40.10501,-88.2219,236.2738,0.66,332.5781,12,10,1416097104,-0.1629944,-0.6491241,0.7627563,-4.856583,-36.15991,-9.502747,190.6766,193.7589,15,-0.04361672,-0.009789248,-0.03279417,0.5521667,-2.915749,0.6884868,-0.0052035,0.05613405,-0.03862345,-0.005318196,0.009621673,5.64942e-05,172.17.160.76,10.64.29.0,1,unknown,2,2014-11-15 18:18:11.291,134,2014-11-15 18:16:20.024,3
2014-11-15 18:18:24.769,47875,1595.833,40.10501,-88.2219,236.2738,0.66,332.5781,12,10,1416097104,-0.1637115,-0.6565399,0.7621613,-4.856583,-35.88462,-9.56958,189.1898,192.2721,15,-0.05435405,-0.005333779,-0.006193447,0.5549678,-2.916986,0.6889256,0.01386252,0.05642364,0.001640343,0.01157218,-0.01739853,0.008980475,172.17.160.76,10.64.29.0,1,unknown,2,2014-11-15 18:18:11.291,134,2014-11-15 18:16:20.024,3
2014-11-15 18:18:24.803,47876,1595.867,40.10501,-88.2219,236.2738,0.66,332.5781,12,10,1416097104,-0.1596069,-0.6535339,0.7543945,-4.616032,-35.78138,-9.536255,189.1444,192.2267,15,-0.04688362,0.0095469,-0.005081578,0.5559798,-2.916999,0.6906112,0.008505953,0.0692545,0.01233987,0.007966352,-0.01953143,0.01066482,172.17.160.76,10.64.29.0,1,unknown,2,2014-11-15 18:18:11.291,134,2014-11-15 18:16:20.024,3
2014-11-15 18:18:24.836,47877,1595.9,40.10501,-88.2219,236.2738,0.66,332.5781,12,10,1416097104,-0.1530914,-0.6582642,0.7465057,-4.478573,-35.36844,-9.46936,189.1203,192.2026,15,-0.03089427,0.0116721,-0.004068777,0.5582936,-2.917747,0.6921204,0.03090911,0.07557348,0.006977212,0.01642152,-0.01774324,-0.002593949,172.17.160.76,10.64.29.0,1,unknown,2,2014-11-15 18:18:11.291,134,2014-11-15 18:16:20.024,3
2014-11-15 18:18:24.869,47878,1595.933,40.10501,-88.2219,236.2738,0.66,332.5781,12,10,1416097104,-0.1495667,-0.6652832,0.7407227,-4.272388,-35.71255,-9.335571,189.0624,192.1447,15,-0.02876933,0.01488281,-0.0008753811,0.5595837,-2.917617,0.693518,0.03620643,0.08096033,0.01759701,0.01827416,-0.02467864,-0.004753006,172.17.160.76,10.64.29.0,1,unknown,2,2014-11-15 18:18:11.291,134,2014-11-15 18:16:20.024,3
2014-11-15 18:18:24.902,47879,1595.967,40.10501,-88.2219,236.2738,0.66,332.5781,12,10,1416097104,-0.1618958,-0.6530457,0.7481384,-4.959671,-35.43726,-9.402466,189.044,192.1263,15,-0.04045288,-0.00864036,-0.02112366,0.5610338,-2.917781,0.6953374,0.02234193,0.06279545,-0.00154234,0.01966284,-0.02114443,-0.006377107,172.17.160.76,10.64.29.0,1,unknown,2,2014-11-15 18:18:11.291,134,2014-11-15 18:16:20.024,3
2014-11-15 18:18:24.936,47880,1596,40.10501,-88.2219,236.2738,0.66,332.5781,12,10,1416097104,-0.1630402,-0.6525116,0.7365112,-4.822216,-35.71256,-9.603149,189.0382,192.1205,15,-0.01703544,-0.01388519,-0.01062415,0.5619125,-2.917832,0.6957211,0.02979855,0.04896047,-0.00376746,0.00843101,-0.0121065,-0.0003171786,172.17.160.76,10.64.29.0,1,unknown,2,2014-11-15 18:18:11.291,134,2014-11-15 18:16:20.024,3
2014-11-15 18:18:24.968,47881,1596.033,40.10501,-88.2219,236.2738,0.66,332.5781,12,10,1416097104,-0.1622772,-0.6573334,0.7350311,-5.165855,-35.16197,-9.670105,189.05,192.1324,15,-0.05221793,-0.02131381,-0.01159301,0.5629437,-2.916633,0.6960743,0.02336907,0.05861278,0.007981255,0.008698316,-0.01195755,-0.01286163,172.17.160.76,10.64.29.0,1,unknown,2,2014-11-15 18:18:11.291,134,2014-11-15 18:16:20.024,3
2014-11-15 18:18:25.002,47882,1596.067,40.10501,-88.2219,236.2738,0.66,332.5781,12,10,1416097104,-0.1708527,-0.6476746,0.7464294,-4.787849,-35.05874,-9.703613,189.0597,192.142,15,-0.05435086,-0.04366732,-0.01701014,0.5632757,-2.915862,0.6974713,0.009505164,0.03626387,0.002606367,0.009272479,-0.01505177,-0.01199299,172.17.160.76,10.64.29.0,1,unknown,2,2014-11-15 18:18:11.291,134,2014-11-15 18:16:20.024,3
2014-11-15 18:18:25.036,47883,1596.1,40.10501,-88.2219,236.2738,0.66,332.5781,12,10,1416097104,-0.1713409,-0.6602783,0.7360229,-4.684757,-35.16197,-9.469482,189.0488,192.1311,15,-0.06820089,-0.05326375,-0.02231622,0.5636311,-2.915322,0.6983626,0.004169607,0.008589978,-0.003889335,-0.00281225,-0.01339234,-0.006947567,172.17.160.76,10.64.29.0,1,unknown,2,2014-11-15 18:18:11.291,134,2014-11-15 18:16:20.024,3
2014-11-15 18:18:25.069,47884,1596.133,40.10501,-88.22192,237.2555,0.77,294.9609,12,10,1416097105,-0.1718903,-0.6509094,0.7486725,-4.409843,-35.29961,-9.469482,189.0334,192.1157,15,-0.07460447,-0.06282397,-0.02234259,0.5636286,-2.914983,0.699432,-0.009682204,0.008572882,-0.007022335,0.0005823745,-0.01649514,-0.009621463,172.17.160.76,10.64.29.0,1,unknown,2,2014-11-15 18:18:11.291,134,2014-11-15 18:16:20.024,3
2014-11-15 18:18:25.105,47885,1596.167,40.10501,-88.22192,237.2555,0.77,294.9609,12,10,1416097105,-0.1735077,-0.6547852,0.750473,-4.238022,-35.33403,-9.235352,189.0125,192.0948,15,-0.06823285,-0.08299262,-0.01928821,0.5637617,-2.915073,0.700071,-0.005436047,-0.00522742,-0.004988301,0.002116577,-0.005721911,-0.001591284,172.17.160.76,10.64.29.0,1,unknown,2,2014-11-15 18:18:11.291,134,2014-11-15 18:16:20.024,3
2014-11-15 18:18:25.140,47886,1596.2,40.10501,-88.22192,237.2555,0.77,294.9609,12,10,1416097105,-0.1771393,-0.6477661,0.7380524,-4.581669,-35.5405,-9.569824,188.9869,192.0692,15,-0.093796,-0.07877737,-0.02553918,0.5637962,-2.915778,0.7012326,-0.02569349,-0.01799285,-0.008164236,-0.008906981,-0.005703687,-0.003744177,172.17.160.76,10.64.29.0,1,unknown,2,2014-11-15 18:18:11.291,134,2014-11-15 18:16:20.024,3
2014-11-15 18:18:25.169,47887,1596.233,40.10501,-88.22192,237.2555,0.77,294.9609,12,10,1416097105,-0.1739655,-0.6514282,0.7405701,-4.616032,-35.29961,-9.536377,188.9679,192.0502,15,-0.08847048,-0.06812206,-0.02125709,0.563559,-2.915596,0.7020796,-0.02887994,-0.009506049,-0.01023016,-0.006056095,-0.001959244,-0.006033669,172.17.160.76,10.64.29.0,1,unknown,2,2014-11-15 18:18:11.291,134,2014-11-15 18:16:20.024,3
2014-11-15 18:18:25.203,47888,1596.267,40.10501,-88.22192,237.2555,0.77,294.9609,12,10,1416097105,-0.1700592,-0.6567688,0.7664032,-4.856579,-35.33403,-9.636658,188.966,192.0483,15,-0.07352003,-0.08096862,-0.03305702,0.5633059,-2.915348,0.7032492,-0.01182852,-0.01056908,-0.009237848,-0.001280178,-0.007734769,4.023889e-05,172.17.160.76,10.64.29.0,1,unknown,2,2014-11-15 18:18:11.291,134,2014-11-15 18:16:20.024,3
2014-11-15 18:18:25.236,47889,1596.3,40.10501,-88.22192,237.2555,0.77,294.9609,12,10,1416097105,-0.1837006,-0.6408386,0.7471466,-4.959671,-35.09315,-9.402527,188.9705,192.0528,15,-0.07673179,-0.09051445,-0.0309723,0.5642788,-2.91672,0.7034674,-0.01072701,-0.02343358,-0.02417093,-1.241684e-05,-0.009902984,0.02299974,172.17.160.76,10.64.29.0,1,unknown,2,2014-11-15 18:18:11.291,134,2014-11-15 18:16:20.024,3
2014-11-15 18:18:25.269,47890,1596.333,40.10501,-88.22192,237.2555,0.77,294.9609,12,10,1416097105,-0.1783295,-0.6530457,0.7463379,-5.09713,-35.23079,-9.268738,188.985,192.0673,15,-0.03416037,-0.0914226,-0.007783887,0.564234,-2.917145,0.7032236,0.009462907,-0.02647074,-0.003031226,-0.01538411,0.0002718064,-0.003913777,172.17.160.76,10.64.29.0,1,unknown,2,2014-11-15 18:18:11.291,134,2014-11-15 18:16:20.024,3
2014-11-15 18:18:25.303,47891,1596.367,40.10501,-88.22192,237.2555,0.77,294.9609,12,10,1416097105,-0.1790771,-0.6474152,0.7466278,-4.684757,-35.02431,-9.603149,188.984,192.0663,15,-0.04589186,-0.09779234,-0.007773501,0.5636699,-2.917092,0.7025731,0.02648372,-0.02639046,0.008582787,-0.008430123,-0.006862127,0.002307608,172.17.160.76,10.64.29.0,1,unknown,2,2014-11-15 18:18:11.291,134,2014-11-15 18:16:20.024,3
2014-11-15 18:18:25.336,47892,1596.4,40.10501,-88.22192,237.2555,0.77,294.9609,12,10,1416097105,-0.1695099,-0.6442719,0.7437592,-4.512936,-35.19638,-9.904236,188.978,192.0603,15,-0.04268008,-0.08398811,-0.008774317,0.5631338,-2.917321,0.7019568,0.01901344,-0.03169121,0.009645086,-0.009260125,-0.00170208,0.002170424,172.17.160.76,10.64.29.0,1,unknown,2,2014-11-15 18:18:11.291,134,2014-11-15 18:16:20.024,3
2014-11-15 18:18:25.369,47893,1596.433,40.10501,-88.22192,237.2555,0.77,294.9609,12,10,1416097105,-0.1600952,-0.6381378,0.7394257,-4.478573,-35.09314,-9.803833,188.9658,192.0481,15,-0.0213756,-0.0977966,-0.006803844,0.5629434,-2.917994,0.7009066,0.03607794,-0.02533237,0.008553323,0.003130712,0.005155549,0.001166696,172.17.160.76,10.64.29.0,1,unknown,2,2014-11-15 18:18:11.291,134,2014-11-15 18:16:20.024,3
2014-11-15 18:18:25.403,47894,1596.467,40.10501,-88.22192,237.2555,0.77,294.9609,12,10,1416097105,-0.1502533,-0.6431427,0.7579803,-4.512936,-34.92107,-10.03802,188.9548,192.0372,15,-0.01290461,-0.1146906,0.00793622,0.5632887,-2.919797,0.6994452,0.05414408,-0.04968701,0.02109405,0.008005499,-0.001775614,-0.00547318,172.17.160.76,10.64.29.0,1,unknown,2,2014-11-15 18:18:11.291,134,2014-11-15 18:16:20.024,3
2014-11-15 18:18:25.436,47895,1596.5,40.10501,-88.22192,237.2555,0.77,294.9609,12,10,1416097105,-0.1536255,-0.6395264,0.7544556,-4.581669,-34.92107,-9.904236,188.9516,192.034,15,-0.02775839,-0.1137963,-0.01535605,0.5638339,-2.92285,0.6976172,0.03607063,-0.04341727,0.006331571,0.01495353,0.003813054,0.01369718,172.17.160.76,10.64.29.0,1,unknown,2,2014-11-15 18:18:11.291,134,2014-11-15 18:16:20.024,3
2014-11-15 18:18:25.469,47896,1596.533,40.10501,-88.22192,237.2555,0.77,294.9609,12,10,1416097105,-0.1585693,-0.6469116,0.7357483,-4.444206,-35.19637,-10.17175,188.9429,192.0252,15,-0.02344141,-0.1245763,-0.03559714,0.5645599,-2.92471,0.6966516,0.03930798,-0.05203305,-0.008587672,0.01142153,0.002126691,0.005428975,172.17.160.76,10.64.29.0,1,unknown,2,2014-11-15 18:18:11.291,134,2014-11-15 18:16:20.024,3
2014-11-15 18:18:25.503,47897,1596.567,40.10501,-88.22192,237.2555,0.77,294.9609,12,10,1416097105,-0.1571198,-0.6452179,0.7614441,-4.787849,-35.33402,-9.569702,188.9412,192.0235,15,-0.0319843,-0.1522156,-0.03783366,0.5660121,-2.927914,0.6962226,0.03187484,-0.08298171,-0.02676909,0.004135298,-0.005587623,-0.01407218,172.17.160.76,10.64.29.0,1,unknown,2,2014-11-15 18:18:11.291,134,2014-11-15 18:16:20.024,3
2014-11-15 18:18:25.536,47898,1596.6,40.10501,-88.22192,237.2555,0.77,294.9609,12,10,1416097105,-0.1491089,-0.6530304,0.7586212,-5.200218,-35.33402,-9.302185,188.9508,192.0331,15,-0.0405152,-0.1341072,-0.03239895,0.5677712,-2.933526,0.6948777,0.03396086,-0.07435589,-0.009749154,0.005519761,-0.01032799,0.002676976,172.17.160.76,10.64.29.0,1,unknown,2,2014-11-15 18:18:11.291,134,2014-11-15 18:16:20.024,3
2014-11-15 18:18:25.569,47899,1596.633,40.10501,-88.22192,237.2555,0.77,294.9609,12,10,1416097105,-0.1750793,-0.6449432,0.7645111,-5.268944,-35.40284,-9.101562,188.9609,192.0432,15,-0.02037824,-0.1508553,0.002466354,0.5688815,-2.936733,0.6945551,0.02969136,-0.08392648,-0.01084618,-0.001183375,-0.01040797,0.0113996,172.17.160.76,10.64.29.0,1,unknown,2,2014-11-15 18:18:11.291,134,2014-11-15 18:16:20.024,3
2014-11-15 18:18:25.603,47900,1596.667,40.10501,-88.22192,237.2555,0.77,294.9609,12,10,1416097105,-0.1784973,-0.6433258,0.7566986,-4.822212,-35.50608,-9.268738,188.959,192.0413,15,-0.04921069,-0.09216615,0.03366635,0.5681427,-2.938365,0.6930777,0.03490192,-0.06872395,0.03273662,-0.01981384,-0.006035437,0.01105942,172.17.160.76,10.64.29.0,1,unknown,2,2014-11-15 18:18:11.291,134,2014-11-15 18:16:20.024,3
2014-11-15 18:18:25.636,47901,1596.7,40.10501,-88.22192,237.2555,0.77,294.9609,12,10,1416097105,-0.179657,-0.6360168,0.7668762,-4.99403,-35.33402,-9.101562,188.9576,192.0399,15,-0.05670829,-0.09207454,0.04537121,0.5654986,-2.93687,0.6924125,0.01034273,-0.02602918,0.05640859,-0.02201902,-0.004929839,0.003063994,172.17.160.76,10.64.29.0,1,unknown,2,2014-11-15 18:18:11.291,134,2014-11-15 18:16:20.024,3
2014-11-15 18:18:25.669,47902,1596.733,40.10501,-88.22192,237.2555,0.77,294.9609,12,10,1416097105,-0.175705,-0.631546,0.7707214,-5.268944,-35.05873,-8.833984,188.9573,192.0396,15,-0.05032948,-0.0856462,0.05281155,0.5634196,-2.935527,0.6917676,0.007131109,-0.02705654,0.06066299,-0.02086192,0.002843907,0.00538966,172.17.160.76,10.64.29.0,1,unknown,2,2014-11-15 18:18:11.291,134,2014-11-15 18:16:20.024,3
2014-11-15 18:18:25.707,47903,1596.767,40.10501,-88.22192,237.2555,0.77,294.9609,12,10,1416097105,-0.1593475,-0.6290436,0.758667,-5.062759,-34.92108,-8.633362,188.9595,192.0418,15,-0.01423992,-0.098048,0.1014393,0.5559851,-2.930848,0.6873056,0.03575772,-0.0319807,0.11361,-0.01303458,0.02685187,0.006106014,172.17.160.76,10.64.29.0,1,unknown,2,2014-11-15 18:18:11.291,134,2014-11-15 18:16:20.024,3
2014-11-15 18:18:25.736,47904,1596.8,40.10501,-88.22192,237.2555,0.77,294.9609,12,10,1416097105,-0.1589508,-0.6219635,0.7622223,-5.062759,-35.05873,-8.834045,188.9611,192.0434,15,-0.008853679,-0.08754449,0.08555219,0.5532159,-2.929582,0.6853732,0.05815359,-0.02668672,0.1124933,-0.003458671,0.00886222,0.001177272,172.17.160.76,10.64.29.0,1,unknown,2,2014-11-15 18:18:11.291,134,2014-11-15 18:16:20.024,3
2014-11-15 18:18:25.769,47905,1596.833,40.10501,-88.22192,237.2555,0.77,294.9609,12,10,1416097105,-0.162384,-0.6200562,0.7552032,-4.994026,-35.47168,-8.90094,188.9666,192.0489,15,-0.00984544,-0.08240673,0.06223035,0.5494341,-2.928133,0.6822876,0.04227794,-0.0163176,0.07757844,-0.001124629,0.01319956,0.005704222,172.17.160.76,10.64.29.0,1,unknown,2,2014-11-15 18:18:11.291,134,2014-11-15 18:16:20.024,3
2014-11-15 18:18:25.803,47906,1596.867,40.10501,-88.22192,237.2555,0.77,294.9609,12,10,1416097105,-0.1554108,-0.6388702,0.74086,-5.475128,-35.67815,-8.901001,188.9747,192.057,15,-0.001314536,-0.07922319,0.06221517,0.547024,-2.927159,0.6796843,0.06999724,-0.0110112,0.07856405,0.007301976,0.002448865,-0.006066971,172.17.160.76,10.64.29.0,1,unknown,2,2014-11-15 18:18:11.291,134,2014-11-15 18:16:20.024,3
2014-11-15 18:18:25.836,47907,1596.9,40.10501,-88.22192,237.2555,0.77,294.9609,12,10,1416097105,-0.1812439,-0.6368103,0.7553253,-5.475128,-35.8158,-8.700378,188.9889,192.0712,15,-0.04499038,-0.09525222,0.04743356,0.5448955,-2.92671,0.6787992,0.02523693,-0.02913426,0.06801951,0.01055383,-0.01101142,-0.01956691,172.17.160.76,10.64.29.0,1,unknown,2,2014-11-15 18:18:11.291,134,2014-11-15 18:16:20.024,3
2014-11-15 18:18:25.869,47908,1596.933,40.10501,-88.22192,237.2555,0.77,294.9609,12,10,1416097105,-0.1709595,-0.6231079,0.7583008,-5.406399,-35.60932,-8.633484,188.9986,192.0809,15,-0.05143789,-0.06957082,0.07094555,0.5412281,-2.925089,0.6781998,0.02307758,-0.02587981,0.07653738,-0.02054208,-0.005221912,-0.002498005,172.17.160.76,10.64.29.0,1,unknown,2,2014-11-15 18:18:11.291,134,2014-11-15 18:16:20.024,3
2014-11-15 18:18:25.902,47909,1596.967,40.10501,-88.22192,237.2555,0.77,294.9609,12,10,1416097105,-0.1684418,-0.6143494,0.7561951,-5.337673,-35.81579,-8.499695,189.0039,192.0862,15,-0.05462809,-0.06746,0.06884564,0.5388731,-2.923554,0.6773483,0.01240417,-0.004549485,0.08624416,-0.00737307,0.002125649,0.001220833,172.17.160.76,10.64.29.0,1,unknown,2,2014-11-15 18:18:11.291,134,2014-11-15 18:16:20.024,3
2014-11-15 18:18:25.936,47910,1597,40.10501,-88.22192,237.2555,0.77,294.9609,12,10,1416097105,-0.1656799,-0.6291809,0.7621765,-5.81876,-35.95345,-8.633484,189.0352,192.1175,15,-0.04068937,-0.09321703,0.03575187,0.5351945,-2.921494,0.6758783,0.02094887,-0.01318493,0.06283144,0.002619294,0.01050098,0.0009918903,172.17.160.76,10.64.29.0,1,unknown,2,2014-11-15 18:18:11.291,134,2014-11-15 18:16:20.024,3
2014-11-15 18:18:25.969,47911,1597.033,40.10501,-88.22192,237.2555,0.77,294.9609,12,10,1416097105,-0.1442871,-0.6271667,0.7533112,-6.402958,-35.91903,-8.198669,189.082,192.1643,15,-0.09286496,-0.09653852,0.01470012,0.5331358,-2.921461,0.6747588,-0.009901354,-0.02823916,0.03739142,0.01080832,-0.00819506,-0.008459206,172.17.160.76,10.64.29.0,1,unknown,2,2014-11-15 18:18:11.291,134,2014-11-15 18:16:20.024,3
2014-11-15 18:18:26.003,47912,1597.067,40.10501,-88.22192,237.2555,0.77,294.9609,12,10,1416097105,-0.1721039,-0.6241913,0.7489471,-6.712234,-35.67815,-8.232117,189.117,192.1993,15,-0.1002683,-0.1243622,-0.01195573,0.5327932,-2.923649,0.6763927,-0.0375574,-0.04757836,0.005553564,0.01331424,0.01117685,-0.005254152,172.17.160.76,10.64.29.0,1,unknown,2,2014-11-15 18:18:11.291,134,2014-11-15 18:16:20.024,3
2014-11-15 18:18:26.036,47913,1597.1,40.10501,-88.22192,237.2555,0.77,294.9609,12,10,1416097105,-0.1865845,-0.653183,0.7471161,-6.368591,-35.5405,-8.232056,189.1696,192.2519,15,-0.09815133,-0.1275191,-0.007734352,0.5324305,-2.924553,0.6771393,-0.0343662,-0.0645976,0.003329069,-0.0042749,0.002374785,-0.01213655,172.17.160.76,10.64.29.0,1,unknown,2,2014-11-15 18:18:11.291,134,2014-11-15 18:16:20.024,3
2014-11-15 18:18:26.070,47914,1597.133,40.10503,-88.22192,238.209,0.68,301.6406,12,10,1416097106,-0.1903687,-0.6484833,0.747467,-5.887505,-35.67815,-8.767151,189.218,192.3003,15,-0.1259209,-0.07308087,0.02343928,0.5303004,-2.924154,0.6798694,-0.04721299,-0.02082142,0.03014638,-0.02378034,-0.02786376,-0.01045742,172.17.160.76,10.64.29.0,1,unknown,2,2014-11-15 18:18:11.291,134,2014-11-15 18:16:20.024,3
2014-11-15 18:18:26.103,47915,1597.167,40.10503,-88.22192,238.209,0.68,301.6406,12,10,1416097106,-0.2013702,-0.6334534,0.7615356,-5.612591,-35.47167,-8.901001,189.2306,192.3129,15,-0.1653541,-0.05392635,0.02474929,0.5271475,-2.921217,0.6829645,-0.09413451,0.01010094,0.04110169,-0.02080235,-0.0173879,-0.009478069,172.17.160.76,10.64.29.0,1,unknown,2,2014-11-15 18:18:11.291,134,2014-11-15 18:16:20.024,3
2014-11-15 18:18:26.136,47916,1597.2,40.10503,-88.22192,238.209,0.68,301.6406,12,10,1416097106,-0.1912384,-0.6171417,0.7615967,-5.578217,-35.43726,-8.599976,189.2543,192.3366,15,-0.1291095,-0.05181127,0.02568619,0.523665,-2.917652,0.6855569,-0.08561144,0.009045917,0.0421292,-0.02947061,-0.0003491889,0.006797534,172.17.160.76,10.64.29.0,1,unknown,2,2014-11-15 18:18:11.291,134,2014-11-15 18:16:20.024,3
2014-11-15 18:18:26.169,47917,1597.233,40.10503,-88.22192,238.209,0.68,301.6406,12,10,1416097106,-0.1836395,-0.6186676,0.7646942,-5.715679,-35.36844,-8.666809,189.2837,192.366,15,-0.1184377,-0.0922993,0.01163375,0.5203784,-2.914648,0.68721,-0.05362787,-0.000580137,0.03137435,-0.01756742,0.01328916,0.0150367,172.17.160.76,10.64.29.0,1,unknown,2,2014-11-15 18:18:11.291,134,2014-11-15 18:16:20.024,3
2014-11-15 18:18:26.203,47918,1597.267,40.10503,-88.22192,238.209,0.68,301.6406,12,10,1416097106,-0.1689453,-0.6252594,0.7592926,-5.578224,-35.36844,-8.800598,189.2995,192.3819,15,-0.0950618,-0.1016987,0.03484933,0.5185321,-2.913822,0.6874129,-0.04937813,-0.02927991,0.03014809,-0.009115852,0.01587213,0.01176605,172.17.160.76,10.64.29.0,1,unknown,2,2014-11-15 18:18:11.291,134,2014-11-15 18:16:20.024,3
2014-11-15 18:18:26.236,47919,1597.3,40.10503,-88.22192,238.209,0.68,301.6406,12,10,1416097106,-0.1691132,-0.640274,0.7698975,-5.818775,-35.33402,-9.101624,189.3466,192.4289,15,-0.09613825,-0.1155119,0.03478062,0.516585,-2.913729,0.6873212,-0.02280761,-0.03866594,0.05547519,0.005661282,0.009209517,0.00632399,172.17.160.76,10.64.29.0,1,unknown,2,2014-11-15 18:18:11.291,134,2014-11-15 18:16:20.024,3
2014-11-15 18:18:26.269,47920,1597.333,40.10503,-88.22192,238.209,0.68,301.6406,12,10,1416097106,-0.177536,-0.6226959,0.7494202,-6.265511,-35.36843,-9.068176,189.4081,192.4904,15,-0.1270301,-0.1176856,0.02639299,0.5144637,-2.915086,0.6879893,-0.05688741,-0.05470349,0.04065549,4.261051e-05,0.003286544,0.01384039,172.17.160.76,10.64.29.0,1,unknown,2,2014-11-15 18:18:11.291,134,2014-11-15 18:16:20.024,3
2014-11-15 18:18:26.303,47921,1597.367,40.10503,-88.22192,238.209,0.68,301.6406,12,10,1416097106,-0.1672516,-0.6305542,0.7511444,-6.506058,-35.26519,-9.034729,189.4465,192.5288,15,-0.110992,-0.09758408,0.01582397,0.5129721,-2.915025,0.6887036,-0.06220556,-0.04408266,0.03967049,-0.004102728,0.01284086,-0.002918783,172.17.160.76,10.64.29.0,1,unknown,2,2014-11-15 18:18:11.291,134,2014-11-15 18:16:20.024,3
2014-11-15 18:18:26.336,47922,1597.4,40.10503,-88.22192,238.209,0.68,301.6406,12,10,1416097106,-0.1533813,-0.6566925,0.756134,-6.402969,-35.43725,-9.201965,189.5143,192.5966,15,-0.07150295,-0.1062324,-0.001353152,0.5111656,-2.915403,0.6897725,-0.01633576,-0.0324944,0.02154527,0.007454046,0.001580824,0.007245492,172.17.160.76,10.64.29.0,1,unknown,2,2014-11-15 18:18:11.291,134,2014-11-15 18:16:20.024,3
2014-11-15 18:18:26.369,47923,1597.433,40.10503,-88.22192,238.209,0.68,301.6406,12,10,1416097106,-0.1595612,-0.639267,0.7461548,-6.677891,-35.23078,-9.201904,189.592,192.6743,15,-0.09066173,-0.1212031,-0.01515951,0.5115493,-2.918368,0.6907697,-0.02162665,-0.05389187,0.00234208,0.01935104,-0.01934822,0.005051084,172.17.160.76,10.64.29.0,1,unknown,2,2014-11-15 18:18:11.291,134,2014-11-15 18:16:20.024,3
2014-11-15 18:18:26.403,47924,1597.467,40.10503,-88.22192,238.209,0.68,301.6406,12,10,1416097106,-0.1679993,-0.6266022,0.7528229,-6.471703,-35.2996,-9.268799,189.6262,192.7085,15,-0.09919024,-0.133974,-0.01837927,0.5117968,-2.920875,0.6922241,-0.03869282,-0.06770779,0.00126938,0.008977191,-0.001016044,-0.004998051,172.17.160.76,10.64.29.0,1,unknown,2,2014-11-15 18:18:11.291,134,2014-11-15 18:16:20.024,3
2014-11-15 18:18:26.436,47925,1597.5,40.10503,-88.22192,238.209,0.68,301.6406,12,10,1416097106,-0.1534729,-0.6427002,0.760849,-6.815342,-34.74902,-9.536438,189.7126,192.7949,15,-0.05963723,-0.1257486,-0.05245149,0.5121867,-2.923943,0.6927176,-0.006643639,-0.06150106,-0.01898621,0.002224951,0.0124406,0.0007623481,172.17.160.76,10.64.29.0,1,unknown,2,2014-11-15 18:18:11.291,134,2014-11-15 18:16:20.024,3
2014-11-15 18:18:26.470,47926,1597.533,40.10503,-88.22192,238.209,0.68,301.6406,12,10,1416097106,-0.1539917,-0.6477509,0.7575226,-6.574791,-35.19636,-9.569824,189.747,192.8293,15,-0.05747954,-0.1343304,-0.06311958,0.5132266,-2.926047,0.6926055,0.004072981,-0.06058093,-0.03706735,0.009646571,0.0008033932,0.007195656,172.17.160.76,10.64.29.0,1,unknown,2,2014-11-15 18:18:11.291,134,2014-11-15 18:16:20.024,3
2014-11-15 18:18:26.503,47927,1597.567,40.10503,-88.22192,238.209,0.68,301.6406,12,10,1416097106,-0.1648102,-0.6392212,0.74823,-6.471703,-35.0243,-9.536499,189.805,192.8873,15,-0.06711885,-0.1555057,-0.05364166,0.5156109,-2.930184,0.6929619,0.0009059227,-0.08621156,-0.05417565,0.002367208,-0.01178555,0.004576885,172.17.160.76,10.64.29.0,1,unknown,2,2014-11-15 18:18:11.291,134,2014-11-15 18:16:20.024,3
2014-11-15 18:18:26.536,47928,1597.6,40.10503,-88.22192,238.209,0.68,301.6406,12,10,1416097106,-0.1592407,-0.6385193,0.7652893,-6.059334,-35.16195,-9.068237,189.8452,192.9275,15,-0.05329917,-0.1394458,-0.03662512,0.5171261,-2.934359,0.693503,-0.003449214,-0.08172651,-0.02335196,-0.006583145,1.371954e-05,-0.004327615,172.17.160.76,10.64.29.0,1,unknown,2,2014-11-15 18:18:11.291,134,2014-11-15 18:16:20.024,3
2014-11-15 18:18:26.570,47929,1597.633,40.10503,-88.22192,238.209,0.68,301.6406,12,10,1416097106,-0.1550751,-0.6367493,0.7590942,-6.196789,-34.61136,-8.934448,189.8895,192.9718,15,-0.04471554,-0.1555568,-0.05903323,0.518908,-2.939311,0.6927496,0.01792207,-0.08931112,-0.04151617,-0.001792211,0.00120421,0.005260263,172.17.160.76,10.64.29.0,1,unknown,2,2014-11-15 18:18:11.291,134,2014-11-15 18:16:20.024,3
2014-11-15 18:18:26.603,47930,1597.667,40.10503,-88.22192,238.209,0.68,301.6406,12,10,1416097106,-0.151886,-0.634079,0.7578583,-5.956242,-34.78342,-9.034729,189.9038,192.9861,15,-0.0287182,-0.1513224,-0.06013231,0.5201329,-2.941892,0.6923534,0.0243325,-0.08828387,-0.04578053,-0.001872504,0.005782075,0.0006789898,172.17.160.76,10.64.29.0,1,unknown,2,2014-11-15 18:18:11.291,134,2014-11-15 18:16:20.024,3
2014-11-15 18:18:26.636,47931,1597.7,40.10503,-88.22192,238.209,0.68,301.6406,12,10,1416097106,-0.1385345,-0.6327209,0.7467194,-6.02496,-34.92106,-9.235352,189.9295,193.0118,15,-0.05428375,-0.1630701,-0.06965178,0.5228799,-2.94723,0.6913328,0.02326881,-0.09361318,-0.04792787,0.00485952,-0.002343343,-0.004899283,172.17.160.76,10.64.29.0,1,unknown,2,2014-11-15 18:18:11.291,134,2014-11-15 18:16:20.024,3
2014-11-15 18:18:26.669,47932,1597.733,40.10503,-88.22192,238.209,0.68,301.6406,12,10,1416097106,-0.1317291,-0.6386871,0.7641907,-5.990597,-35.16195,-9.068176,189.9483,193.0306,15,-0.06276911,-0.1653029,-0.08449251,0.5244889,-2.950414,0.6915926,-0.003351633,-0.1064559,-0.06169583,0.007821502,0.005043672,-0.009479157,172.17.160.76,10.64.29.0,1,unknown,2,2014-11-15 18:18:11.291,134,2014-11-15 18:16:20.024,3
2014-11-15 18:18:26.703,47933,1597.767,40.10503,-88.22192,238.209,0.68,301.6406,12,10,1416097106,-0.1281586,-0.6460266,0.7528381,-5.818775,-35.12753,-9.235352,189.9541,193.0364,15,-0.03618623,-0.1630153,-0.0612274,0.5284538,-2.957513,0.6915607,0.02222659,-0.09686843,-0.05643554,0.009258841,-0.0009470568,0.006952279,172.17.160.76,10.64.29.0,1,unknown,2,2014-11-15 18:18:11.291,134,2014-11-15 18:16:20.024,3
2014-11-15 18:18:26.736,47934,1597.8,40.10503,-88.22192,238.209,0.68,301.6406,12,10,1416097106,-0.1119995,-0.6650085,0.7723083,-5.612598,-34.98988,-9.101624,189.9607,193.043,15,-0.08849924,-0.1447013,-0.03121358,0.5308077,-2.963425,0.6920691,0.000787331,-0.09444769,-0.01813187,0.009162522,-0.02370312,-0.01074544,172.17.160.76,10.64.29.0,1,unknown,2,2014-11-15 18:18:11.291,134,2014-11-15 18:16:20.024,3
2014-11-15 18:18:26.769,47935,1597.833,40.10503,-88.22192,238.209,0.68,301.6406,12,10,1416097106,-0.1223145,-0.6405945,0.7730713,-5.509506,-35.0243,-9.135071,189.9566,193.0389,15,-0.06403731,-0.1743785,-0.01978516,0.5319145,-2.96731,0.6936364,-0.01416826,-0.09118402,-0.008508805,0.02133385,-0.025671,0.01503051,172.17.160.76,10.64.29.0,1,unknown,2,2014-11-15 18:18:11.291,134,2014-11-15 18:16:20.024,3
2014-11-15 18:18:26.803,47936,1597.867,40.10503,-88.22192,238.209,0.68,301.6406,12,10,1416097106,-0.1393127,-0.6272278,0.7725372,-5.337692,-34.64576,-8.700256,189.9371,193.0194,15,-0.001185906,-0.1593897,-0.000834901,0.5325779,-2.971471,0.6930419,0.03163597,-0.1070844,-0.0002737374,0.007930965,-0.001714244,0.01487067,172.17.160.76,10.64.29.0,1,unknown,2,2014-11-15 18:18:11.291,134,2014-11-15 18:16:20.024,3
2014-11-15 18:18:26.836,47937,1597.9,40.10503,-88.22192,238.209,0.68,301.6406,12,10,1416097106,-0.1566467,-0.6310272,0.7954254,-5.440781,-34.54252,-8.599854,189.925,193.0073,15,0.02759141,-0.1082873,0.01418719,0.5324304,-2.974116,0.6905266,0.06890092,-0.0803622,0.02308083,-0.01080596,0.009715433,0.01241267,172.17.160.76,10.64.29.0,1,unknown,2,2014-11-15 18:18:11.291,134,2014-11-15 18:16:20.024,3
2014-11-15 18:18:26.870,47938,1597.933,40.10503,-88.22192,238.209,0.68,301.6406,12,10,1416097106,-0.1553345,-0.6357269,0.8052521,-5.578236,-34.68017,-8.733704,189.9214,193.0037,15,0.05103362,-0.0891083,0.02269226,0.5318064,-2.973985,0.689211,0.07849504,-0.06226099,0.02844961,-0.01964579,0.007571485,0.01589162,172.17.160.76,10.64.29.0,1,unknown,2,2014-11-15 18:18:11.291,134,2014-11-15 18:16:20.024,3
2014-11-15 18:18:26.903,47939,1597.967,40.10503,-88.22192,238.209,0.68,301.6406,12,10,1416097106,-0.1712341,-0.6264801,0.7881775,-6.093697,-34.71458,-8.833923,189.9332,193.0155,15,0.1179855,-0.006642456,0.1131018,0.5281394,-2.970989,0.679212,0.1752779,0.04787673,0.1093425,-0.02871416,-0.007119574,0.01377576,172.17.160.76,10.64.29.0,1,unknown,2,2014-11-15 18:18:11.291,134,2014-11-15 18:16:20.024,3
2014-11-15 18:18:26.936,47940,1598,40.10503,-88.22192,238.209,0.68,301.6406,12,10,1416097106,-0.1648865,-0.6222992,0.787796,-6.299885,-35.334,-8.432556,190.4429,193.5253,15,0.165777,0.0544691,0.1886099,0.5218623,-2.96373,0.6701012,0.2241085,0.0952149,0.1900826,-0.02695121,-0.004865529,0.01600496,172.17.160.76,10.64.29.0,1,unknown,2,2014-11-15 18:18:11.291,134,2014-11-15 18:16:20.024,3
2014-11-15 18:18:26.970,47941,1598.033,40.10503,-88.22192,238.209,0.68,301.6406,12,10,1416097106,-0.1170044,-0.6094666,0.7739105,-6.196789,-35.23077,-7.930847,190.5343,193.6166,15,0.1678883,0.07794113,0.2014633,0.5171933,-2.957811,0.6645222,0.2294005,0.1410901,0.2147206,-0.02102428,-0.005616145,0.01384145,172.17.160.76,10.64.29.0,1,unknown,2,2014-11-15 18:18:11.291,134,2014-11-15 18:16:20.024,3
2014-11-15 18:18:27.002,47942,1598.067,40.10503,-88.22192,238.209,0.68,301.6406,12,10,1416097106,-0.09248352,-0.6132965,0.7592468,-5.921879,-34.95547,-7.462585,190.2915,193.3738,15,0.1551523,0.03841557,0.1726429,0.5093773,-2.948075,0.6535847,0.2315623,0.1197221,0.1997374,0.03567364,-0.001430301,-0.005179544,172.17.160.76,10.64.29.0,1,unknown,2,2014-11-15 18:18:11.291,134,2014-11-15 18:16:20.024,3
2014-11-15 18:18:27.037,47943,1598.1,40.10503,-88.22192,238.209,0.68,301.6406,12,10,1416097106,-0.09223938,-0.605545,0.7398376,-5.921883,-34.54252,-7.596375,190.4772,193.5595,15,0.08714076,-0.009998572,0.08878553,0.50402,-2.942386,0.6448742,0.1890138,0.08229847,0.1519002,0.07019865,-0.01132884,-0.02462749,172.17.160.76,10.64.29.0,1,unknown,2,2014-11-15 18:18:11.291,134,2014-11-15 18:16:20.024,3
2014-11-15 18:18:27.070,47944,1598.133,40.10506,-88.22191,237.5657,0.5,326.6016,12,10,1416097107,-0.1171417,-0.6071167,0.7316895,-6.128067,-34.4737,-7.730164,190.8088,193.8911,15,0.01379091,-0.05200248,0.009227853,0.5011394,-2.93888,0.6396694,0.1220559,0.03923637,0.07337441,0.06928404,-0.008614794,-0.04602778,172.17.160.76,10.64.29.0,1,unknown,2,2014-11-15 18:18:11.291,134,2014-11-15 18:16:20.024,3
2014-11-15 18:18:27.103,47945,1598.167,40.10506,-88.22191,237.5657,0.5,326.6016,12,10,1416097107,-0.1354523,-0.6079865,0.7452698,-6.506073,-34.92105,-7.830444,191.307,194.3893,15,-0.01813906,-0.06808531,-0.01196691,0.5006166,-2.938112,0.6376929,0.07740883,0.01338853,0.02457725,0.05564483,-0.008294326,-0.05572448,172.17.160.76,10.64.29.0,1,unknown,2,2014-11-15 18:18:11.291,134,2014-11-15 18:16:20.024,3
2014-11-15 18:18:27.136,47946,1598.2,40.10506,-88.22191,237.5657,0.5,326.6016,12,10,1416097107,-0.1902313,-0.595459,0.7774506,-7.055901,-34.57693,-7.495972,192.1846,195.267,15,-0.04699467,-0.05298679,0.01581918,0.5007886,-2.938246,0.6364596,0.02094972,0.0005287676,0.006674996,0.00737881,-0.01299365,-0.01714276,172.17.160.76,10.64.29.0,1,unknown,2,2014-11-15 18:18:11.291,134,2014-11-15 18:16:20.024,3
2014-11-15 18:18:27.169,47947,1598.233,40.10506,-88.22191,237.5657,0.5,326.6016,12,10,1416097107,-0.1957397,-0.6085968,0.7755737,-6.918446,-34.71457,-7.228394,192.0048,195.0871,15,-0.07044887,-0.04126249,0.01915319,0.4994427,-2.936977,0.6357199,0.002749436,0.01776263,0.03655528,-0.0281538,-0.005608288,-0.008149979,172.17.160.76,10.64.29.0,1,unknown,2,2014-11-15 18:18:11.291,134,2014-11-15 18:16:20.024,3
2014-11-15 18:18:27.203,47948,1598.267,40.10506,-88.22191,237.5657,0.5,326.6016,12,10,1416097107,-0.1914215,-0.6197052,0.788269,-7.021545,-34.61133,-6.659851,192.1825,195.2648,15,-0.07469554,-0.0391751,0.01387267,0.4976899,-2.93512,0.6360317,-0.02069329,0.01987506,0.03346961,-0.03229859,-0.01446691,-0.01140219,172.17.160.76,10.64.29.0,1,unknown,2,2014-11-15 18:18:11.291,134,2014-11-15 18:16:20.024,3
2014-11-15 18:18:27.236,47949,1598.3,40.10506,-88.22191,237.5657,0.5,326.6016,12,10,1416097107,-0.164444,-0.6264496,0.8013306,-6.815365,-35.23076,-6.927429,191.7811,194.8634,15,-0.07040413,-0.03285755,0.006459497,0.496915,-2.934156,0.6361056,-0.004682615,0.02513986,0.02812991,-0.02575082,-0.02563797,0.001098576,172.17.160.76,10.64.29.0,1,unknown,2,2014-11-15 18:18:11.291,134,2014-11-15 18:16:20.024,3
2014-11-15 18:18:27.269,47950,1598.333,40.10506,-88.22191,237.5657,0.5,326.6016,12,10,1416097107,-0.1677246,-0.6009979,0.7825623,-6.918453,-35.0587,-6.827148,191.7857,194.868,15,-0.1236857,-0.04246623,-0.002944923,0.4963531,-2.933167,0.6362361,-0.02062827,0.03461513,0.01550167,-0.001519918,-0.03745008,0.01212676,172.17.160.76,10.64.29.0,1,unknown,2,2014-11-15 18:18:11.291,134,2014-11-15 18:16:20.024,3
2014-11-15 18:18:27.303,47951,1598.367,40.10506,-88.22191,237.5657,0.5,326.6016,12,10,1416097107,-0.1660767,-0.5977478,0.7640228,-7.330826,-34.98987,-6.893982,191.8132,194.8955,15,-0.1077275,-0.05197372,0.00543711,0.4945945,-2.930745,0.6392183,-0.05902004,0.02721191,0.01772945,-0.001206815,0.003214971,-0.01627978,172.17.160.76,10.64.29.0,1,unknown,2,2014-11-15 18:18:11.291,134,2014-11-15 18:16:20.024,3
2014-11-15 18:18:27.336,47952,1598.4,40.10506,-88.22191,237.5657,0.5,326.6016,12,10,1416097107,-0.1789703,-0.6053162,0.7655487,-7.708832,-34.88664,-6.860535,191.8696,194.9519,15,-0.1205786,-0.07843649,0.01808366,0.493656,-2.92979,0.6402593,-0.03880966,-0.0003692863,0.02493928,-0.001121798,0.002570028,-0.01644214,172.17.160.76,10.64.29.0,1,unknown,2,2014-11-15 18:18:11.291,134,2014-11-15 18:16:20.024,3
2014-11-15 18:18:27.370,47953,1598.433,40.10506,-88.22191,237.5657,0.5,326.6016,12,10,1416097107,-0.2049103,-0.6040955,0.7872162,-7.571381,-35.09311,-7.328857,191.943,195.0253,15,-0.1248996,-0.00909363,0.05455539,0.4896155,-2.926505,0.6440072,-0.0623483,0.02432517,0.0570036,-0.02272322,-0.001996927,-0.005741363,172.17.160.76,10.64.29.0,1,unknown,2,2014-11-15 18:18:11.291,134,2014-11-15 18:16:20.024,3
2014-11-15 18:18:27.403,47954,1598.467,40.10506,-88.22191,237.5657,0.5,326.6016,12,10,1416097107,-0.2051392,-0.5911713,0.7964783,-7.433922,-35.09311,-7.730225,191.9675,195.0498,15,-0.1238655,-0.0004974785,0.06733456,0.4866752,-2.922793,0.6447163,-0.06129684,0.05630312,0.06990979,-0.02971363,0.001102901,0.00315621,172.17.160.76,10.64.29.0,1,unknown,2,2014-11-15 18:18:11.291,134,2014-11-15 18:16:20.024,3
2014-11-15 18:18:27.436,47955,1598.5,40.10506,-88.22191,237.5657,0.5,326.6016,12,10,1416097107,-0.2054901,-0.5929718,0.8140411,-7.433922,-34.54252,-7.730225,192.027,195.1093,15,-0.03980627,0.02966868,0.1276831,0.4792972,-2.913317,0.645283,-0.03372679,0.09712352,0.1294719,-0.03162137,0.01527342,0.03074084,172.17.160.76,10.64.29.0,1,unknown,2,2014-11-15 18:18:11.291,134,2014-11-15 18:16:20.024,3
2014-11-15 18:18:27.469,47956,1598.533,40.10506,-88.22191,237.5657,0.5,326.6016,12,10,1416097107,-0.187973,-0.6048279,0.778595,-7.433922,-34.61134,-7.730225,192.9995,196.0818,15,-0.007774034,0.02846227,0.1105731,0.4712699,-2.903652,0.6416014,0.05689305,0.09174948,0.1269826,-0.00906156,-0.001801586,0.01528711,172.17.160.76,10.64.29.0,1,unknown,2,2014-11-15 18:18:11.291,134,2014-11-15 18:16:20.024,3
2014-11-15 18:18:27.502,47957,1598.567,40.10506,-88.22191,237.5657,0.5,326.6016,12,10,1416097107,-0.1705933,-0.607254,0.7638245,-7.433926,-34.40487,-7.997742,193.5585,196.6408,15,-0.01200633,0.04541808,0.1043094,0.4699095,-2.9019,0.6407559,0.05583165,0.09386709,0.1259362,-0.002267348,-0.005744585,0.005453841,172.17.160.76,10.64.29.0,1,unknown,2,2014-11-15 18:18:11.291,134,2014-11-15 18:16:20.024,3
2014-11-15 18:18:27.536,47958,1598.6,40.10506,-88.22191,237.5657,0.5,326.6016,12,10,1416097107,-0.1497345,-0.5995941,0.7653198,-7.502655,-34.74899,-7.930847,193.7422,196.8245,15,-0.02680179,0.03019758,0.05757941,0.4650238,-2.894738,0.6379061,0.03781931,0.1063709,0.09210156,0.03277264,-0.01300589,-0.01972971,172.17.160.76,10.64.29.0,1,unknown,2,2014-11-15 18:18:11.291,134,2014-11-15 18:16:20.024,3
2014-11-15 18:18:27.569,47959,1598.633,40.10506,-88.22191,237.5657,0.5,326.6016,12,10,1416097107,-0.1762543,-0.6083221,0.7599335,-7.571381,-34.47369,-8.131531,193.745,196.8273,15,-0.03522883,-0.02221715,0.01062974,0.4635105,-2.891413,0.6367037,0.03156578,0.04851872,0.02918973,0.0453656,-0.00802133,-0.02026941,172.17.160.76,10.64.29.0,1,unknown,2,2014-11-15 18:18:11.291,134,2014-11-15 18:16:20.024,3
2014-11-15 18:18:27.603,47960,1598.667,40.10506,-88.22191,237.5657,0.5,326.6016,12,10,1416097107,-0.1904907,-0.6005402,0.7592163,-7.777561,-34.54252,-8.198425,194.0743,197.1566,15,-0.07255223,-0.007266169,0.01827861,0.4632655,-2.890416,0.636515,0.008108097,0.05917691,0.03251493,0.0236181,-0.01392559,-0.01900412,172.17.160.76,10.64.29.0,1,unknown,2,2014-11-15 18:18:11.291,134,2014-11-15 18:16:20.024,3
2014-11-15 18:18:27.636,47961,1598.7,40.10506,-88.22191,237.5657,0.5,326.6016,12,10,1416097107,-0.2046509,-0.5857697,0.7873688,-7.88065,-34.64576,-8.1651,194.3207,197.403,15,-0.1043959,-0.01078953,-0.02832591,0.4620102,-2.88767,0.6378223,-0.04617581,0.05259575,0.001899543,0.008928258,-0.00196476,-0.02081247,172.17.160.76,10.64.29.0,1,unknown,2,2014-11-15 18:18:11.291,134,2014-11-15 18:16:20.024,3
2014-11-15 18:18:27.669,47962,1598.733,40.10506,-88.22191,237.5657,0.5,326.6016,12,10,1416097107,-0.2087555,-0.5941467,0.7939758,-8.121201,-35.02429,-7.93103,194.5279,197.6102,15,-0.09478217,-0.01084226,-0.03473108,0.4619505,-2.88658,0.6385388,-0.04079862,0.05460611,-0.01297068,0.001169277,0.008681445,0.0004814396,172.17.160.76,10.64.29.0,1,unknown,2,2014-11-15 18:18:11.291,134,2014-11-15 18:16:20.024,3
2014-11-15 18:18:27.702,47963,1598.767,40.10506,-88.22191,237.5657,0.5,326.6016,12,10,1416097107,-0.2278748,-0.6128693,0.77565,-8.293018,-35.12753,-7.42926,194.514,197.5963,15,-0.05863509,-0.05319664,-0.01279835,0.4626694,-2.885282,0.6384852,-0.004561094,0.0290689,-0.01536294,-0.01041792,0.00250438,0.01081546,172.17.160.76,10.64.29.0,1,unknown,2,2014-11-15 18:18:11.291,134,2014-11-15 18:16:20.024,3
2014-11-15 18:18:27.736,47964,1598.8,40.10506,-88.22191,237.5657,0.5,326.6016,12,10,1416097107,-0.2418365,-0.6198425,0.7865143,-8.086838,-34.98988,-7.563049,194.5156,197.5979,15,-0.06827759,-0.0573304,0.002076733,0.4622973,-2.884182,0.6386238,0.008132948,0.01120767,0.01209518,-0.02389725,-0.02878691,0.001949253,172.17.160.76,10.64.29.0,1,unknown,2,2014-11-15 18:18:11.291,134,2014-11-15 18:16:20.024,3
2014-11-15 18:18:27.770,47965,1598.833,40.10506,-88.22191,237.5657,0.5,326.6016,12,10,1416097107,-0.22966,-0.5918579,0.7769318,-8.121201,-34.95547,-7.864014,194.5181,197.6004,15,-0.08856635,-0.02104004,0.02251197,0.4604186,-2.881884,0.6396235,-0.04840072,0.02196025,0.02510319,-0.03917389,-0.01062,0.01108437,172.17.160.76,10.64.29.0,1,unknown,2,2014-11-15 18:18:11.291,134,2014-11-15 18:16:20.024,3
2014-11-15 18:18:27.803,47966,1598.867,40.10506,-88.22191,237.5657,0.5,326.6016,12,10,1416097107,-0.1986084,-0.6001587,0.7671051,-8.567936,-34.92106,-8.231873,194.5461,197.6284,15,-0.06724908,-0.0263637,0.02240411,0.4584361,-2.879108,0.6399572,-0.01004775,0.04755697,0.0399568,-0.02152523,0.005303239,0.002284445,172.17.160.76,10.64.29.0,1,unknown,2,2014-11-15 18:18:11.291,134,2014-11-15 18:16:20.024,3
2014-11-15 18:18:27.836,47967,1598.9,40.10506,-88.22191,237.5657,0.5,326.6016,12,10,1416097107,-0.1966248,-0.6125641,0.7575989,-8.361744,-34.64577,-8.365723,194.5747,197.657,15,-0.1109545,-0.07319219,0.009583385,0.4570533,-2.877824,0.6406638,-0.02817782,-0.0003336402,0.02915512,0.01544679,-0.00644401,-0.009750562,172.17.160.76,10.64.29.0,1,unknown,2,2014-11-15 18:18:11.291,134,2014-11-15 18:16:20.024,3
2014-11-15 18:18:27.870,47968,1598.933,40.10506,-88.22191,237.5657,0.5,326.6016,12,10,1416097107,-0.1919556,-0.5865173,0.7728271,-8.293018,-34.37048,-8.031189,194.586,197.6683,15,-0.1216015,-0.07641461,0.004298875,0.4561076,-2.878023,0.6433956,-0.06441094,-0.0131412,0.0196666,0.009281768,-0.006728108,-0.01118828,172.17.160.76,10.64.29.0,1,unknown,2,2014-11-15 18:18:11.291,134,2014-11-15 18:16:20.024,3
2014-11-15 18:18:27.903,47969,1598.967,40.10506,-88.22191,237.5657,0.5,326.6016,12,10,1416097107,-0.1897278,-0.5890656,0.7721863,-7.880646,-34.37047,-8.231873,194.5906,197.6729,15,-0.1066615,-0.07326622,1.358212e-05,0.4556242,-2.878324,0.6441806,-0.04841974,-0.00995544,0.02068376,0.01222242,0.01390402,-0.001518728,172.17.160.76,10.64.29.0,1,unknown,2,2014-11-15 18:18:11.291,134,2014-11-15 18:16:20.024,3
2014-11-15 18:18:27.936,47970,1599,40.10506,-88.22191,237.5657,0.5,326.6016,12,10,1416097107,-0.2102356,-0.6007538,0.7717133,-8.052467,-34.74901,-8.198425,194.5982,197.6805,15,-0.1150949,-0.1001146,-0.03830957,0.4550743,-2.878901,0.6457091,-0.04835059,-0.0290859,-0.009221791,0.01498689,0.01010539,-0.003467337,172.17.160.76,10.64.29.0,1,unknown,2,2014-11-15 18:18:11.291,134,2014-11-15 18:16:20.024,3
2014-11-15 18:18:27.970,47971,1599.033,40.10506,-88.22191,237.5657,0.5,326.6016,12,10,1416097107,-0.2242584,-0.601181,0.7839966,-8.018105,-34.85224,-8.298767,194.6,197.6823,15,-0.0916471,-0.08201417,-0.03193317,0.4554535,-2.880497,0.6479383,-0.04618091,-0.02492516,-0.02088466,-0.004413333,0.00279002,0.001406777,172.17.160.76,10.64.29.0,1,unknown,2,2014-11-15 18:18:11.291,134,2014-11-15 18:16:20.024,3
2014-11-15 18:18:28.002,47972,1599.067,40.10506,-88.22191,237.5657,0.5,326.6016,12,10,1416097107,-0.2383728,-0.5993652,0.7836304,-7.949375,-35.26519,-8.231873,194.6026,197.6849,15,-0.07354319,-0.06920011,-0.02238014,0.4549181,-2.879712,0.6478725,-0.02059584,-0.0132134,-0.01666837,-0.02105607,-0.002160463,0.01469862,172.17.160.76,10.64.29.0,1,unknown,2,2014-11-15 18:18:11.291,134,2014-11-15 18:16:20.024,3
2014-11-15 18:18:28.036,47973,1599.1,40.10506,-88.22191,237.5657,0.5,326.6016,12,10,1416097107,-0.2267609,-0.5897675,0.7814636,-8.018105,-34.85224,-8.63324,194.6014,197.6837,15,-0.05653731,-0.04353043,0.001043959,0.4534916,-2.877392,0.6469523,-0.0004046206,0.007180636,0.01096904,-0.02919574,0.006749061,0.01415556,172.17.160.76,10.64.29.0,1,unknown,2,2014-11-15 18:18:11.291,134,2014-11-15 18:16:20.024,3
2014-11-15 18:18:28.069,47974,1599.133,40.10506,-88.22191,237.5657,0.5,326.6016,12,10,1416097107,-0.2203217,-0.597168,0.7773132,-8.018105,-34.85224,-8.63324,194.6014,197.6837,15,-0.04481781,-0.03180773,0.006369216,0.4529715,-2.876526,0.6463665,0.007054767,0.02209489,0.01632896,-0.02628493,0.01415505,0.01301907,172.17.160.76,10.64.29.0,1,unknown,2,2014-11-15 18:18:11.291,134,2014-11-15 18:16:20.024,3
2014-11-15 18:18:28.102,47975,1599.167,40.10508,-88.2219,237.4068,0.37,331.1719,12,10,1416097108,-0.2134705,-0.6060944,0.7765198,-7.88065,-34.4393,-8.633179,194.5966,197.6789,15,-0.02030314,-0.04245398,0.005159874,0.4516003,-2.873406,0.6435626,0.04011084,0.02419865,0.01515869,-0.004575993,-0.002001628,0.002238459,172.17.160.76,10.64.29.0,1,unknown,2,2014-11-15 18:18:11.291,134,2014-11-15 18:16:20.024,3
2014-11-15 18:18:28.136,47976,1599.2,40.10508,-88.2219,237.4068,0.37,331.1719,12,10,1416097108,-0.203064,-0.6071167,0.7684631,-7.468273,-34.98989,-8.231812,194.5838,197.6661,15,-0.01718085,-0.04971802,0.02846253,0.4510333,-2.872412,0.6420747,0.04856683,0.01372815,0.03630165,-0.0004896945,-0.007236107,0.00450424,172.17.160.76,10.64.29.0,1,unknown,2,2014-11-15 18:18:11.291,134,2014-11-15 18:16:20.024,3
2014-11-15 18:18:28.170,47977,1599.233,40.10508,-88.2219,237.4068,0.37,331.1719,12,10,1416097108,-0.2192993,-0.5789337,0.7699585,-7.674454,-34.85224,-8.298645,194.5786,197.6609,15,-0.06298962,-0.03699983,0.02127067,0.4496329,-2.871064,0.64115,0.001658813,0.02864976,0.0397381,0.01128794,0.002032837,-0.00243997,172.17.160.76,10.64.29.0,1,unknown,2,2014-11-15 18:18:11.291,134,2014-11-15 18:16:20.024,3
2014-11-15 18:18:28.203,47978,1599.267,40.10508,-88.2219,237.4068,0.37,331.1719,12,10,1416097108,-0.2256775,-0.6159058,0.7685242,-7.983727,-35.16195,-8.13147,194.5845,197.6668,15,-0.03842222,-0.06268229,-0.001247691,0.4486853,-2.86997,0.6400687,0.02088391,0.009392528,0.0236428,-0.004112334,0.01831679,-0.002690451,172.17.160.76,10.64.29.0,1,unknown,2,2014-11-15 18:18:11.291,134,2014-11-15 18:16:20.024,3
2014-11-15 18:18:28.236,47979,1599.3,40.10508,-88.2219,237.4068,0.37,331.1719,12,10,1416097108,-0.219635,-0.6044769,0.7872772,-8.018101,-34.50812,-8.098022,194.5889,197.6712,15,-0.0586231,-0.05003281,-0.01596618,0.4482564,-2.869298,0.6396031,0.02306946,0.004998699,0.004505828,-0.007928004,-0.004471866,-0.009511974,172.17.160.76,10.64.29.0,1,unknown,2,2014-11-15 18:18:11.291,134,2014-11-15 18:16:20.024,3
2014-11-15 18:18:28.269,47980,1599.333,40.10508,-88.2219,237.4068,0.37,331.1719,12,10,1416097108,-0.2141571,-0.6031189,0.7608948,-8.533558,-34.40488,-8.532837,194.6196,197.7019,15,-0.06183327,-0.06171183,-0.01495418,0.4479743,-2.868312,0.6398883,-0.009981565,0.01353275,0.006797533,-0.00313805,-0.007371117,0.01488243,172.17.160.76,10.64.29.0,1,unknown,2,2014-11-15 18:18:11.291,134,2014-11-15 18:16:20.024,3
2014-11-15 18:18:28.303,47981,1599.367,40.10508,-88.2219,237.4068,0.37,331.1719,12,10,1416097108,-0.2136993,-0.6045227,0.7696075,-8.189919,-34.4737,-8.532837,194.627,197.7094,15,-0.04159485,-0.08829498,-0.01623143,0.4478035,-2.868001,0.6401363,0.001756064,0.00391545,0.0003338596,-0.001442118,-0.004776557,-0.007521014,172.17.160.76,10.64.29.0,1,unknown,2,2014-11-15 18:18:11.291,134,2014-11-15 18:16:20.024,3
2014-11-15 18:18:28.336,47982,1599.4,40.10508,-88.2219,237.4068,0.37,331.1719,12,10,1416097108,-0.2085571,-0.6092682,0.765152,-8.46484,-34.54252,-9.067993,194.6694,197.7517,15,-0.07466998,-0.07330617,-0.003290868,0.4479111,-2.869192,0.640465,0.0102179,-0.0246838,0.01288733,0.0002854079,-0.01725406,-0.007131832,172.17.160.76,10.64.29.0,1,unknown,2,2014-11-15 18:18:11.291,134,2014-11-15 18:16:20.024,3
2014-11-15 18:18:28.369,47983,1599.433,40.10508,-88.2219,237.4068,0.37,331.1719,12,10,1416097108,-0.1934357,-0.597702,0.7722931,-8.155563,-34.64576,-8.833862,194.675,197.7573,15,-0.09703095,-0.08081309,-0.01386149,0.4475697,-2.86926,0.6411296,-0.01109091,-0.007679738,0.01199413,0.003315345,-0.01611093,-0.007175723,172.17.160.76,10.64.29.0,1,unknown,2,2014-11-15 18:18:11.291,134,2014-11-15 18:16:20.024,3
2014-11-15 18:18:28.403,47984,1599.467,40.10508,-88.2219,237.4068,0.37,331.1719,12,10,1416097108,-0.2031555,-0.6075897,0.7721863,-7.846287,-34.68018,-9.134827,194.6811,197.7634,15,-0.06394862,-0.09049688,-0.02783563,0.448378,-2.871965,0.6426435,0.002820965,-0.01634643,-0.008277382,0.01572504,0.00153531,0.004729493,172.17.160.76,10.64.29.0,1,unknown,2,2014-11-15 18:18:11.291,134,2014-11-15 18:16:20.024,3
2014-11-15 18:18:28.436,47985,1599.5,40.10508,-88.2219,237.4068,0.37,331.1719,12,10,1416097108,-0.2172852,-0.6116638,0.7669983,-7.708828,-34.61136,-8.867249,194.6753,197.7576,15,-0.08527069,-0.104324,-0.03101304,0.4489702,-2.873226,0.6429331,-0.009970845,-0.03550887,-0.01363944,0.009060089,-0.008044216,0.0004935148,172.17.160.76,10.64.29.0,1,unknown,2,2014-11-15 18:18:11.291,134,2014-11-15 18:16:20.024,3
2014-11-15 18:18:28.470,47986,1599.533,40.10508,-88.2219,237.4068,0.37,331.1719,12,10,1416097108,-0.2158356,-0.6047211,0.7736664,-7.708828,-34.61136,-8.867249,194.6753,197.7576,15,-0.1001684,-0.09373847,-0.03727041,0.449186,-2.874121,0.6438782,-0.03128794,-0.0397727,-0.01676704,-0.003407372,-0.01305594,-0.002979178,172.17.160.76,10.64.29.0,1,unknown,2,2014-11-15 18:18:11.291,134,2014-11-15 18:16:20.024,3
2014-11-15 18:18:28.503,47987,1599.567,40.10508,-88.2219,237.4068,0.37,331.1719,12,10,1416097108,-0.206543,-0.5990906,0.7748108,-8.224289,-34.30165,-8.164917,194.6813,197.7636,15,-0.09160715,-0.09276003,-0.04791213,0.4496884,-2.875331,0.6457567,-0.03443129,-0.02394349,-0.03153234,0.0001835755,0.001476363,0.004675508,172.17.160.76,10.64.29.0,1,unknown,2,2014-11-15 18:18:11.291,134,2014-11-15 18:16:20.024,3
2014-11-15 18:18:28.536,47988,1599.6,40.10508,-88.2219,237.4068,0.37,331.1719,12,10,1416097108,-0.2039948,-0.6029663,0.7702484,-8.155563,-34.16401,-7.964233,194.6874,197.7697,15,-0.0735352,-0.1054164,-0.03424719,0.4511065,-2.877488,0.6460665,-0.001410713,-0.03453142,-0.0242812,0.001890433,0.002959799,0.004037892,172.17.160.76,10.64.29.0,1,unknown,2,2014-11-15 18:18:11.291,134,2014-11-15 18:16:20.024,3
2014-11-15 18:18:28.570,47989,1599.633,40.10508,-88.2219,237.4068,0.37,331.1719,12,10,1416097108,-0.2184753,-0.5997772,0.7760468,-8.189934,-34.40489,-8.198242,194.6936,197.7759,15,-0.04902453,-0.1043421,-0.03114886,0.4520742,-2.879823,0.6465469,-0.007832972,-0.03872418,-0.01684969,-0.001129395,0.0005966719,-0.0003024729,172.17.160.76,10.64.29.0,1,unknown,2,2014-11-15 18:18:11.291,134,2014-11-15 18:16:20.024,3
2014-11-15 18:18:28.603,47990,1599.667,40.10508,-88.2219,237.4068,0.37,331.1719,12,10,1416097108,-0.2028351,-0.6067047,0.7731323,-7.502651,-34.47371,-8.398987,194.6802,197.7625,15,-0.04687323,-0.09161594,-0.03427435,0.4522839,-2.880615,0.6459757,0.02201872,-0.03341603,-0.01586968,-0.009158221,-0.0003780959,0.008113122,172.17.160.76,10.64.29.0,1,unknown,2,2014-11-15 18:18:11.291,134,2014-11-15 18:16:20.024,3
2014-11-15 18:18:28.636,47991,1599.7,40.10508,-88.2219,237.4068,0.37,331.1719,12,10,1416097108,-0.1960602,-0.6068573,0.774704,-7.468285,-34.37047,-8.432434,194.6725,197.7548,15,-0.06494438,-0.09067211,-0.05118543,0.4531343,-2.881951,0.6456456,0.01138785,-0.02284102,-0.02320472,0.002221761,-0.004990538,0.001192078,172.17.160.76,10.64.29.0,1,unknown,2,2014-11-15 18:18:11.291,134,2014-11-15 18:16:20.024,3
2014-11-15 18:18:28.669,47992,1599.733,40.10508,-88.2219,237.4068,0.37,331.1719,12,10,1416097108,-0.2051239,-0.5910339,0.7779388,-7.60574,-33.54459,-8.633179,194.6693,197.7516,15,-0.05431331,-0.09166814,-0.04167714,0.4550931,-2.884387,0.6461902,-0.000300756,-0.02612902,-0.03697914,0.004224081,-0.00086296,0.00566572,172.17.160.76,10.64.29.0,1,unknown,2,2014-11-15 18:18:11.291,134,2014-11-15 18:16:20.024,3
2014-11-15 18:18:28.702,47993,1599.767,40.10508,-88.2219,237.4068,0.37,331.1719,12,10,1416097108,-0.1981049,-0.6176147,0.7728271,-8.052475,-33.92312,-8.86731,194.6745,197.7569,15,-0.02878291,-0.09686609,-0.0248164,0.4557389,-2.885302,0.645681,0.02415159,-0.02809898,-0.01478953,-0.002660506,0.01070857,0.005336406,172.17.160.76,10.64.29.0,1,unknown,2,2014-11-15 18:18:11.291,134,2014-11-15 18:16:20.024,3
2014-11-15 18:18:28.736,47994,1599.8,40.10508,-88.2219,237.4068,0.37,331.1719,12,10,1416097108,-0.2167969,-0.591095,0.772644,-7.708832,-34.33607,-8.867371,194.6724,197.7547,15,-0.07134795,-0.1130075,-0.05446351,0.4574518,-2.888271,0.6456731,-0.00777176,-0.04314509,-0.03916536,0.003682486,-0.01096527,0.005588567,172.17.160.76,10.64.29.0,1,unknown,2,2014-11-15 18:18:11.291,134,2014-11-15 18:16:20.024,3
2014-11-15 18:18:28.769,47995,1599.833,40.10508,-88.2219,237.4068,0.37,331.1719,12,10,1416097108,-0.2060242,-0.610199,0.7755127,-7.640106,-35.02431,-8.466003,194.6574,197.7397,15,-0.03299603,-0.109767,-0.04503672,0.4582804,-2.889665,0.6455137,0.01673128,-0.04949818,-0.03504176,-0.01943636,0.008713332,-0.007325444,172.17.160.76,10.64.29.0,1,unknown,2,2014-11-15 18:18:11.291,134,2014-11-15 18:16:20.024,3
2014-11-15 18:18:28.803,47996,1599.867,40.10508,-88.2219,237.4068,0.37,331.1719,12,10,1416097108,-0.2106476,-0.6020813,0.7768097,-7.571381,-34.88666,-7.930786,194.6371,197.7194,15,-0.06925737,-0.08735435,-0.03416809,0.4590949,-2.890734,0.6449676,0.02630518,-0.02390238,-0.02220332,-0.007654532,-0.00902645,0.00140606,172.17.160.76,10.64.29.0,1,unknown,2,2014-11-15 18:18:11.291,134,2014-11-15 18:16:20.024,3
2014-11-15 18:18:28.836,47997,1599.9,40.10508,-88.2219,237.4068,0.37,331.1719,12,10,1416097108,-0.2155151,-0.5971375,0.7770233,-7.846294,-34.68018,-7.863831,194.6328,197.7151,15,-0.05972911,-0.08612876,-0.01190619,0.4594461,-2.891473,0.6452722,-0.004660394,-0.03314697,-0.01161011,-0.01289476,-0.0006653785,0.002734301,172.17.160.76,10.64.29.0,1,unknown,2,2014-11-15 18:18:11.291,134,2014-11-15 18:16:20.024,3
2014-11-15 18:18:28.870,47998,1599.933,40.10508,-88.2219,237.4068,0.37,331.1719,12,10,1416097108,-0.2124481,-0.5979004,0.776413,-7.91502,-34.81784,-7.796997,194.6291,197.7114,15,-0.05548483,-0.07437037,-0.00230683,0.4591388,-2.891404,0.6451379,0.00383298,-0.02028634,0.003288242,-0.01506488,0.002538503,0.002043986,172.17.160.76,10.64.29.0,1,unknown,2,2014-11-15 18:18:11.291,134,2014-11-15 18:16:20.024,3
2014-11-15 18:18:28.903,47999,1599.967,40.10508,-88.2219,237.4068,0.37,331.1719,12,10,1416097108,-0.1894684,-0.6020355,0.7759857,-7.743198,-35.12754,-8.36554,194.6133,197.6956,15,-0.05010658,-0.07449288,-0.01824984,0.4578659,-2.89002,0.643971,0.0272674,-0.004275971,0.01390299,-0.003564764,-0.003368638,0.006995423,172.17.160.76,10.64.29.0,1,unknown,2,2014-11-15 18:18:11.291,134,2014-11-15 18:16:20.024,3
2014-11-15 18:18:28.936,48000,1600,40.10508,-88.2219,237.4068,0.37,331.1719,12,10,1416097108,-0.1976471,-0.5944366,0.7774353,-7.811932,-34.98989,-8.23175,194.6077,197.69,15,-0.05969795,-0.09152965,-0.02361105,0.4583584,-2.890974,0.6435803,0.003878807,-0.0150761,-0.01048192,0.008922307,-0.001972166,0.001024363,172.17.160.76,10.64.29.0,1,unknown,2,2014-11-15 18:18:11.291,134,2014-11-15 18:16:20.024,3
2014-11-15 18:18:28.969,48001,1600.033,40.10508,-88.2219,237.4068,0.37,331.1719,12,10,1416097108,-0.1930695,-0.6025085,0.7722778,-8.052483,-35.09314,-8.465942,194.6009,197.6832,15,-0.04478106,-0.08938794,-0.02047119,0.4589763,-2.892533,0.6431875,0.01769798,-0.02873313,-0.00326544,0.002279007,0.004839456,-0.001801103,172.17.160.76,10.64.29.0,1,unknown,2,2014-11-15 18:18:11.291,134,2014-11-15 18:16:20.024,3
2014-11-15 18:18:29.002,48002,1600.067,40.10508,-88.2219,237.4068,0.37,331.1719,12,10,1416097108,-0.1972046,-0.6016388,0.7702484,-8.327389,-34.33607,-8.13147,194.609,197.6913,15,-0.05010658,-0.08726806,-0.02150156,0.4594275,-2.893556,0.6428545,0.01558405,-0.02026401,-0.007459444,0.0002682922,-0.001973146,0.001603383,172.17.160.76,10.64.29.0,1,unknown,2,2014-11-15 18:18:11.291,134,2014-11-15 18:16:20.024,3
2014-11-15 18:18:29.036,48003,1600.1,40.10508,-88.2219,237.4068,0.37,331.1719,12,10,1416097108,-0.1963501,-0.5900421,0.7808533,-8.155563,-34.57696,-7.964233,194.6106,197.6929,15,-0.06181809,-0.07984796,-0.02460308,0.4597488,-2.894569,0.6427958,-0.004669759,-0.01706626,-0.007366802,0.002221699,-0.00261518,-0.005465406,172.17.160.76,10.64.29.0,1,unknown,2,2014-11-15 18:18:11.291,134,2014-11-15 18:16:20.024,3
2014-11-15 18:18:29.070,48004,1600.133,40.10509,-88.22189,237.3942,0.43,303.3984,12,10,1416097109,-0.1970215,-0.6051636,0.7710571,-7.777561,-34.68019,-7.596313,194.6028,197.6851,15,-0.03837509,-0.0894151,-0.02367976,0.4601801,-2.895276,0.6425059,0.01878474,-0.01601589,-0.007449086,-0.001137546,0.009161427,0.004420933,172.17.160.76,10.64.29.0,1,unknown,2,2014-11-15 18:18:11.291,134,2014-11-15 18:16:20.024,3
2014-11-15 18:18:29.102,48005,1600.167,40.10509,-88.22189,237.3942,0.43,303.3984,12,10,1416097109,-0.2027435,-0.6017456,0.7779083,-7.640106,-34.95549,-7.529419,194.5927,197.675,15,-0.05220195,-0.08522968,-0.03315929,0.4604779,-2.895788,0.6418728,0.02199641,-0.0203076,-0.01279051,-0.00534947,0.001238678,-0.002363946,172.17.160.76,10.64.29.0,1,unknown,2,2014-11-15 18:18:11.291,134,2014-11-15 18:16:20.024,3
2014-11-15 18:18:29.136,48006,1600.2,40.10509,-88.22189,237.3942,0.43,303.3984,12,10,1416097109,-0.1937866,-0.5966034,0.7777557,-7.502655,-35.02431,-7.663208,194.5691,197.6514,15,-0.05648618,-0.06495024,-0.02136015,0.4615122,-2.896795,0.6421041,0.0113388,-0.005329992,-0.01277504,-0.005936214,0.001561296,0.0080422,172.17.160.76,10.64.29.0,1,unknown,2,2014-11-15 18:18:11.291,134,2014-11-15 18:16:20.024,3
2014-11-15 18:18:29.170,48007,1600.233,40.10509,-88.22189,237.3942,0.43,303.3984,12,10,1416097109,-0.1982117,-0.5986633,0.7770081,-7.468285,-34.50813,-7.629761,194.5464,197.6287,15,-0.03624456,-0.07876618,-0.02044722,0.4618839,-2.897096,0.6416873,0.008118126,-0.006335616,-0.005337735,-0.0002202606,0.003790904,-0.003000635,172.17.160.76,10.64.29.0,1,unknown,2,2014-11-15 18:18:11.291,134,2014-11-15 18:16:20.024,3
2014-11-15 18:18:29.203,48008,1600.267,40.10509,-88.22189,237.3942,0.43,303.3984,12,10,1416097109,-0.1931763,-0.6086731,0.7762604,-7.330826,-34.64577,-7.897278,194.5228,197.6051,15,-0.05325843,-0.07673632,-0.03417208,0.4622098,-2.897496,0.6410838,0.03583177,-0.01059963,-0.005463683,-0.002747917,-0.009906765,0.003117532,172.17.160.76,10.64.29.0,1,unknown,2,2014-11-15 18:18:11.291,134,2014-11-15 18:16:20.024,3
2014-11-15 18:18:29.236,48009,1600.3,40.10509,-88.22189,237.3942,0.43,303.3984,12,10,1416097109,-0.204422,-0.5894318,0.7770691,-7.468285,-34.30165,-7.897278,194.513,197.5953,15,-0.08734609,-0.07997899,-0.04361486,0.4629585,-2.898301,0.6413143,-0.008890996,-0.01390937,-0.02442132,-0.0001416289,-0.010424,-0.001451428,172.17.160.76,10.64.29.0,1,unknown,2,2014-11-15 18:18:11.291,134,2014-11-15 18:16:20.024,3
2014-11-15 18:18:29.269,48010,1600.333,40.10509,-88.22189,237.3942,0.43,303.3984,12,10,1416097109,-0.197525,-0.5955353,0.7848511,-7.571381,-34.88666,-7.863831,194.4962,197.5785,15,-0.05751389,-0.07782076,-0.03734631,0.4633227,-2.898618,0.6419458,-0.02380361,-0.01393303,-0.02861079,-0.009756412,0.004745595,-0.003251438,172.17.160.76,10.64.29.0,1,stationary,1,2014-11-15 18:18:29.225,134,2014-11-15 18:16:20.024,3
2014-11-15 18:18:29.302,48011,1600.367,40.10509,-88.22189,237.3942,0.43,303.3984,12,10,1416097109,-0.1972809,-0.6021729,0.775238,-7.640106,-35.16195,-7.529419,194.4729,197.5552,15,-0.08528107,-0.08832906,-0.0234984,0.4643022,-2.899421,0.642038,-0.01427377,-0.01582165,-0.008578529,0.0008359523,-0.01187367,-0.004817301,172.17.160.76,10.64.29.0,1,stationary,1,2014-11-15 18:18:29.225,134,2014-11-15 18:16:20.024,3
2014-11-15 18:18:29.336,48012,1600.4,40.10509,-88.22189,237.3942,0.43,303.3984,12,10,1416097109,-0.2071533,-0.6000366,0.7759857,-7.949383,-35.19636,-7.562927,194.4679,197.5502,15,-0.07998352,-0.09357283,-0.01399251,0.4642958,-2.899826,0.6427063,-0.02281804,-0.03068561,-0.007563347,-0.00563193,-0.002808918,-0.001957919,172.17.160.76,10.64.29.0,1,stationary,1,2014-11-15 18:18:29.225,134,2014-11-15 18:16:20.024,3
2014-11-15 18:18:29.369,48013,1600.433,40.10509,-88.22189,237.3942,0.43,303.3984,12,10,1416097109,-0.1925354,-0.5981445,0.7832336,-8.01812,-34.85225,-8.031067,194.4599,197.5422,15,-0.06933486,-0.05415804,-2.556635e-05,0.4631451,-2.899016,0.6429366,-0.006867261,0.005605579,0.0148619,-0.01220721,0.0002899121,0.004328352,172.17.160.76,10.64.29.0,1,stationary,1,2014-11-15 18:18:29.225,134,2014-11-15 18:16:20.024,3
2014-11-15 18:18:29.403,48014,1600.467,40.10509,-88.22189,237.3942,0.43,303.3984,12,10,1416097109,-0.1879578,-0.6015625,0.774231,-8.602306,-34.47372,-8.265137,194.4784,197.5607,15,-0.08529226,-0.07765511,-0.01707326,0.4625752,-2.898382,0.6428756,-0.01537029,-0.004033281,0.004228871,0.0002110341,0.001354885,0.006413675,172.17.160.76,10.64.29.0,1,stationary,1,2014-11-15 18:18:29.225,134,2014-11-15 18:16:20.024,3
2014-11-15 18:18:29.436,48015,1600.5,40.10509,-88.22189,237.3942,0.43,303.3984,12,10,1416097109,-0.1948853,-0.5960999,0.7816772,-8.430481,-34.64578,-8.231628,194.4855,197.5678,15,-0.07462284,-0.07448862,-0.0192195,0.4627309,-2.899074,0.6437501,-0.02599755,-0.01795494,-0.01066639,0.004125159,-0.001363338,-0.002212935,172.17.160.76,10.64.29.0,1,stationary,1,2014-11-15 18:18:29.225,134,2014-11-15 18:16:20.024,3
2014-11-15 18:18:29.469,48016,1600.533,40.10509,-88.22189,237.3942,0.43,303.3984,12,10,1416097109,-0.1899719,-0.6062012,0.7726593,-7.846287,-34.68019,-8.131348,194.4862,197.5685,15,-0.08101762,-0.06384343,-0.01701653,0.4626283,-2.899317,0.6439073,-0.007910477,-0.006060847,0.003042816,-0.0001906483,0.0008375864,0.0002276788,172.17.160.76,10.64.29.0,1,stationary,1,2014-11-15 18:18:29.225,134,2014-11-15 18:16:20.024,3
2014-11-15 18:18:29.503,48017,1600.567,40.10509,-88.22189,237.3942,0.43,303.3984,12,10,1416097109,-0.1917877,-0.5997772,0.7761993,-7.468285,-34.50814,-8.432373,194.4766,197.5589,15,-0.08314496,-0.07024194,-0.02022671,0.4625355,-2.899273,0.6444281,-0.01748405,0.002404487,-0.002184605,0.001858772,-0.005459837,-0.00342757,172.17.160.76,10.64.29.0,1,stationary,1,2014-11-15 18:18:29.225,134,2014-11-15 18:16:20.024,3
2014-11-15 18:18:29.536,48018,1600.6,40.10509,-88.22189,237.3942,0.43,303.3984,12,10,1416097109,-0.1867828,-0.5961914,0.7791443,-7.159008,-34.33608,-8.733398,194.4496,197.5319,15,-0.09806585,-0.06492148,-0.02014282,0.4625492,-2.89945,0.6452311,-0.02601267,-0.01036691,-0.00540433,-0.0008665101,-0.00111019,-0.005983724,172.17.160.76,10.64.29.0,1,stationary,1,2014-11-15 18:18:29.225,134,2014-11-15 18:16:20.024,3
2014-11-15 18:18:29.570,48019,1600.633,40.10509,-88.22189,237.3942,0.43,303.3984,12,10,1416097109,-0.1894226,-0.6022491,0.7874298,-7.571381,-34.54256,-9.06781,194.4307,197.513,15,-0.06929252,-0.06597449,-0.01707166,0.462624,-2.899694,0.6464258,-0.01960674,0.002379606,-0.005361939,0.003929845,0.006313664,0.009575626,172.17.160.76,10.64.29.0,1,unknown,1,2014-11-15 18:18:29.534,134,2014-11-15 18:16:20.024,3
2014-11-15 18:18:29.602,48020,1600.667,40.10509,-88.22189,237.3942,0.43,303.3984,12,10,1416097109,-0.194458,-0.6078491,0.7759094,-7.674469,-34.50814,-8.833618,194.4262,197.5085,15,-0.08955412,-0.07446518,-0.0170405,0.4627753,-2.900101,0.6463693,-0.01536204,-0.008217773,-0.001187906,-0.001428263,-0.0008573049,-0.001460518,172.17.160.76,10.64.29.0,1,unknown,1,2014-11-15 18:18:29.534,134,2014-11-15 18:16:20.024,3
2014-11-15 18:18:29.636,48021,1600.7,40.10509,-88.22189,237.3942,0.43,303.3984,12,10,1416097109,-0.2025604,-0.5931549,0.782547,-7.433926,-34.54255,-8.465759,194.411,197.4933,15,-0.0906122,-0.06383863,-0.01698058,0.4626194,-2.900089,0.6470109,-0.03028696,-0.005976218,-0.003314986,-0.003632725,-0.005045029,0.001175316,172.17.160.76,10.64.29.0,1,unknown,1,2014-11-15 18:18:29.534,134,2014-11-15 18:16:20.024,3
2014-11-15 18:18:29.670,48022,1600.733,40.10509,-88.22189,237.3942,0.43,303.3984,12,10,1416097109,-0.1903992,-0.6100006,0.7746429,-7.571388,-34.6802,-8.265015,194.4034,197.4857,15,-0.06611031,-0.05316096,-0.008524246,0.4624884,-2.899928,0.647236,-0.0270855,0.002531255,-0.002220358,-0.007202638,-0.0001045987,0.004404896,172.17.160.76,10.64.29.0,1,unknown,1,2014-11-15 18:18:29.534,134,2014-11-15 18:16:20.024,3
2014-11-15 18:18:29.703,48023,1600.767,40.10509,-88.22189,237.3942,0.43,303.3984,12,10,1416097109,-0.193573,-0.597641,0.7847748,-7.743214,-34.57696,-8.164734,194.383,197.4653,15,-0.08843452,-0.05437216,-0.02967667,0.4618756,-2.898427,0.6467968,-0.01107778,0.01525879,-0.004335137,0.01207497,-0.01637,-0.000294819,172.17.160.76,10.64.29.0,1,unknown,1,2014-11-15 18:18:29.534,134,2014-11-15 18:16:20.024,3
2014-11-15 18:18:29.736,48024,1600.8,40.10509,-88.22189,237.3942,0.43,303.3984,12,10,1416097109,-0.1957245,-0.6006927,0.7818451,-7.915028,-34.61137,-8.131287,194.3825,197.4648,15,-0.07994597,-0.06066415,-0.01806529,0.4625068,-2.898909,0.6478848,-0.02918652,0.005646119,-0.01175008,-0.0019602,0.005860239,0.01077814,172.17.160.76,10.64.29.0,1,unknown,1,2014-11-15 18:18:29.534,134,2014-11-15 18:16:20.024,3
2014-11-15 18:18:29.770,48025,1600.833,40.10509,-88.22189,237.3942,0.43,303.3984,12,10,1416097109,-0.2018127,-0.6106873,0.782486,-7.880657,-34.30166,-8.231628,194.3825,197.4648,15,-0.04910523,-0.04984585,0.009474728,0.4619796,-2.897671,0.6469548,0.02509814,0.01975989,0.01460886,-0.001812278,-0.003182402,0.007480987,172.17.160.76,10.64.29.0,1,unknown,1,2014-11-15 18:18:29.534,134,2014-11-15 18:16:20.024,3
2014-11-15 18:18:29.803,48026,1600.867,40.10509,-88.22189,237.3942,0.43,303.3984,12,10,1416097109,-0.2056885,-0.5999756,0.7782288,-7.640106,-34.61137,-8.265015,194.3766,197.4589,15,-0.05339745,-0.05296761,0.01796622,0.4611047,-2.896483,0.646361,0.006936782,0.01241124,0.02525357,-0.009335931,-0.00606722,0.006524003,172.17.160.76,10.64.29.0,1,unknown,1,2014-11-15 18:18:29.534,134,2014-11-15 18:16:20.024,3
2014-11-15 18:18:29.836,48027,1600.9,40.10509,-88.22189,237.3942,0.43,303.3984,12,10,1416097109,-0.2016754,-0.6032715,0.7841492,-7.846294,-34.47372,-8.599487,194.3762,197.4585,15,-0.04382285,-0.02417831,0.03188124,0.4596421,-2.894742,0.6456801,0.01543196,0.0231386,0.03907923,-0.01052748,0.00176614,0.003748883,172.17.160.76,10.64.29.0,1,unknown,1,2014-11-15 18:18:29.534,134,2014-11-15 18:16:20.024,3
2014-11-15 18:18:29.870,48028,1600.933,40.10509,-88.22189,237.3942,0.43,303.3984,12,10,1416097109,-0.1902924,-0.6039429,0.7820435,-7.91502,-34.81785,-8.131287,194.3752,197.4575,15,-0.03742966,-0.0369487,0.02966708,0.457538,-2.891798,0.6441636,0.03034453,0.04019662,0.04760559,-0.0005001416,-0.004084384,0.01102717,172.17.160.76,10.64.29.0,1,unknown,1,2014-11-15 18:18:29.534,134,2014-11-15 18:16:20.024,3
2014-11-15 18:18:29.903,48029,1600.967,40.10509,-88.22189,237.3942,0.43,303.3984,12,10,1416097109,-0.1964722,-0.6018982,0.7799377,-7.91502,-34.88667,-7.997498,194.3743,197.4566,15,-0.0373993,-0.04341219,0.01795663,0.4568602,-2.891054,0.6434031,0.02183631,0.01992232,0.03585369,0.008063152,-0.004021289,0.006963341,172.17.160.76,10.64.29.0,1,unknown,1,2014-11-15 18:18:29.534,134,2014-11-15 18:16:20.024,3
2014-11-15 18:18:29.936,48030,1601,40.10509,-88.22189,237.3942,0.43,303.3984,12,10,1416097109,-0.1968994,-0.601593,0.7815399,-7.708832,-35.36844,-8.198242,194.3663,197.4487,15,-0.02889237,-0.04229792,0.02536102,0.4554533,-2.889387,0.6418272,0.03246461,0.02433323,0.03899032,0.003593746,-0.006991825,0.001268801,172.17.160.76,10.64.29.0,1,unknown,1,2014-11-15 18:18:29.534,134,2014-11-15 18:16:20.024,3
2014-11-15 18:18:29.969,48031,1601.033,40.10509,-88.22189,237.3942,0.43,303.3984,12,10,1416097109,-0.2135315,-0.6032715,0.7799988,-7.983746,-35.23079,-8.465881,194.3641,197.4464,15,-0.00975436,-0.06347165,0.03685416,0.4544478,-2.88835,0.6403831,0.04416007,0.01269337,0.04631488,0.001318319,0.004836022,0.00550784,172.17.160.76,10.64.29.0,1,unknown,1,2014-11-15 18:18:29.534,134,2014-11-15 18:16:20.024,3
2014-11-15 18:18:30.003,48032,1601.067,40.10509,-88.22189,237.3942,0.43,303.3984,12,10,1416097109,-0.2261658,-0.5961304,0.7810059,-8.533577,-34.19843,-8.332031,194.3849,197.4672,15,0.0008367652,-0.06649701,0.05908969,0.4526884,-2.887014,0.6381623,0.0654102,-0.0009783279,0.06633253,-0.01125791,-0.00755107,0.002694088,172.17.160.76,10.64.29.0,1,unknown,1,2014-11-15 18:18:29.534,134,2014-11-15 18:16:20.024,3
2014-11-15 18:18:30.036,48033,1601.1,40.10509,-88.22189,237.3942,0.43,303.3984,12,10,1416097109,-0.2203674,-0.5946655,0.7979126,-8.636673,-34.16402,-8.231628,194.4013,197.4836,15,0.03380803,-0.02799621,0.09419787,0.448494,-2.883118,0.6346957,0.07173196,0.02049921,0.09614745,-0.01219052,-0.004815285,0.006760492,172.17.160.76,10.64.29.0,1,unknown,1,2014-11-15 18:18:29.534,134,2014-11-15 18:16:20.024,3
2014-11-15 18:18:30.069,48034,1601.133,40.10508,-88.22189,236.3962,0.28,288.2812,12,10,1416097110,-0.2273407,-0.5866089,0.8049011,-8.499218,-34.50814,-8.566162,194.4246,197.5069,15,0.08377639,-0.03939028,0.13641,0.4451406,-2.879725,0.630666,0.1132429,0.03768135,0.1226216,-0.01621104,-0.002739743,0.02122946,172.17.160.76,10.64.29.0,1,unknown,1,2014-11-15 18:18:29.534,134,2014-11-15 18:16:20.024,3
2014-11-15 18:18:30.103,48035,1601.167,40.10508,-88.22189,236.3962,0.28,288.2812,12,10,1416097110,-0.2377625,-0.580658,0.8148651,-8.533581,-34.6802,-8.599609,194.4371,197.5194,15,0.1092796,-0.05942471,0.1585002,0.4409265,-2.875982,0.6245977,0.1578704,0.01683364,0.1584115,-0.01592831,-0.001731054,0.01780072,172.17.160.76,10.64.29.0,1,unknown,1,2014-11-15 18:18:29.534,134,2014-11-15 18:16:20.024,3
2014-11-15 18:18:30.136,48036,1601.2,40.10508,-88.22189,236.3962,0.28,288.2812,12,10,1416097110,-0.2735291,-0.5713806,0.8407288,-8.602318,-34.9555,-8.265198,195.3667,198.449,15,0.1964907,-0.02701511,0.234771,0.4361578,-2.872546,0.6175873,0.195093,0.0138523,0.18798,-0.02105123,-0.001588144,0.02891703,172.17.160.76,10.64.29.0,1,unknown,1,2014-11-15 18:18:29.534,134,2014-11-15 18:16:20.024,3
2014-11-15 18:18:30.170,48037,1601.233,40.10508,-88.22189,236.3962,0.28,288.2812,12,10,1416097110,-0.3078156,-0.5684052,0.876709,-9.255238,-34.64579,-7.696655,196.4464,199.5287,15,0.2985731,-0.01470651,0.323618,0.4318494,-2.868888,0.6110328,0.2599601,0.03978853,0.2494431,-0.0402469,0.001615898,0.03997735,172.17.160.76,10.64.29.0,1,stationary,1,2014-11-15 18:18:30.152,134,2014-11-15 18:16:20.024,3
2014-11-15 18:18:30.203,48038,1601.267,40.10508,-88.22189,236.3962,0.28,288.2812,12,10,1416097110,-0.3885193,-0.5341034,0.8824768,-9.63324,-34.6802,-7.128052,196.9961,200.0784,15,0.4938323,-0.01895105,0.619018,0.4115644,-2.854417,0.5799522,0.5329587,0.03890926,0.5732309,-0.1034922,0.007273534,0.08299083,172.17.160.76,10.64.29.0,1,stationary,1,2014-11-15 18:18:30.152,134,2014-11-15 18:16:20.024,3
2014-11-15 18:18:30.236,48039,1601.3,40.10508,-88.22189,236.3962,0.28,288.2812,12,10,1416097110,-0.4406738,-0.5715637,0.9190826,-9.667603,-34.43932,-6.760132,197.1351,200.2174,15,0.5755533,0.04792785,0.7570568,0.394472,-2.84328,0.5573305,0.6294931,0.08583056,0.7429535,-0.1479844,-0.004280498,0.0741122,172.17.160.76,10.64.29.0,1,stationary,1,2014-11-15 18:18:30.152,134,2014-11-15 18:16:20.024,3
2014-11-15 18:18:30.269,48040,1601.333,40.10508,-88.22189,236.3962,0.28,288.2812,12,10,1416097110,-0.3879852,-0.4959259,0.8852539,-10.32052,-34.47373,-5.92395,197.9715,201.0538,15,0.5871921,0.2035731,0.8257677,0.3750191,-2.828483,0.5322088,0.6293713,0.2214416,0.81265,-0.175258,-0.06412582,0.09928925,172.17.160.76,10.64.29.0,1,stationary,1,2014-11-15 18:18:30.152,134,2014-11-15 18:16:20.024,3
2014-11-15 18:18:30.303,48041,1601.367,40.10508,-88.22189,236.3962,0.28,288.2812,12,10,1416097110,-0.2982178,-0.4725342,0.8677368,-10.80162,-33.99196,-5.522583,198.781,201.8633,15,0.5573647,0.3014752,0.8433787,0.3613013,-2.815876,0.5147552,0.6251212,0.334255,0.8366126,-0.1113709,-0.02186883,0.06898265,172.17.160.76,10.64.29.0,1,stationary,1,2014-11-15 18:18:30.152,134,2014-11-15 18:16:20.024,3
2014-11-15 18:18:30.336,48042,1601.4,40.10508,-88.22189,236.3962,0.28,288.2812,12,10,1416097110,-0.1994781,-0.4792023,0.8265381,-12.21054,-33.95755,-4.82019,200.7345,203.8168,15,0.5749962,0.2734156,0.6457292,0.3354394,-2.788285,0.4795339,0.654148,0.3815377,0.7677564,0.02864154,-0.02084254,0.03616586,172.17.160.76,10.64.29.0,1,stationary,1,2014-11-15 18:18:30.152,134,2014-11-15 18:16:20.024,3
2014-11-15 18:18:30.369,48043,1601.433,40.10508,-88.22189,236.3962,0.28,288.2812,12,10,1416097110,-0.216507,-0.4292603,0.795929,-12.62291,-33.26931,-4.686401,201.6971,204.7794,15,0.4942941,0.148101,0.5084403,0.3178123,-2.767343,0.4464703,0.5981263,0.2834865,0.5838134,0.108914,-0.02542981,-0.02011652,172.17.160.76,10.64.29.0,1,stationary,1,2014-11-15 18:18:30.152,134,2014-11-15 18:16:20.024,3
2014-11-15 18:18:30.403,48044,1601.467,40.10508,-88.22189,236.3962,0.28,288.2812,12,10,1416097110,-0.250885,-0.4277344,0.7910461,-13.13837,-33.5102,-4.184631,202.1527,205.235,15,0.4189033,0.1037413,0.3980949,0.3083565,-2.756504,0.4249691,0.537568,0.1935709,0.4922791,0.124913,-0.02278123,-0.05821314,172.17.160.76,10.64.29.0,1,stationary,1,2014-11-15 18:18:30.152,134,2014-11-15 18:16:20.024,3
2014-11-15 18:18:30.436,48045,1601.5,40.10508,-88.22189,236.3962,0.28,288.2812,12,10,1416097110,-0.2313995,-0.4081421,0.7852325,-14.03184,-33.16608,-3.381958,203.2566,206.3389,15,0.3423952,-0.08527549,0.2678852,0.3017094,-2.749024,0.40679,0.4514826,0.05348609,0.3687318,0.1004588,-0.03207106,-0.05748674,172.17.160.76,10.64.29.0,1,stationary,1,2014-11-15 18:18:30.152,134,2014-11-15 18:16:20.024,3
2014-11-15 18:18:30.469,48046,1601.533,40.10508,-88.22189,236.3962,0.28,288.2812,12,10,1416097110,-0.2317963,-0.4075317,0.7868042,-15.16586,-33.06284,-2.746582,204.4684,207.5507,15,0.2478503,-0.1637807,0.1372636,0.2973984,-2.748252,0.38794,0.3463637,-0.05823452,0.2008228,0.1155828,-0.03393386,-0.09302074,172.17.160.76,10.64.29.0,1,stationary,1,2014-11-15 18:18:30.152,134,2014-11-15 18:16:20.024,3
2014-11-15 18:18:30.503,48047,1601.567,40.10508,-88.22189,236.3962,0.28,288.2812,12,10,1416097110,-0.2660675,-0.4060364,0.7372284,-15.26896,-32.61549,-2.646179,204.8151,207.8974,15,0.0786586,-0.2379343,0.01543621,0.2974956,-2.753286,0.3758681,0.2177227,-0.1548673,0.05961842,0.110613,-0.03277644,-0.07948966,172.17.160.76,10.64.29.0,1,unknown,1,2014-11-15 18:18:30.461,134,2014-11-15 18:16:20.024,3
2014-11-15 18:18:30.536,48048,1601.6,40.10508,-88.22189,236.3962,0.28,288.2812,12,10,1416097110,-0.3112335,-0.383667,0.8058014,-15.5095,-32.03048,-2.612732,205.4353,208.5176,15,-0.04159005,-0.196896,-0.04546336,0.2980775,-2.756771,0.3734159,0.06866051,-0.1531312,-0.00138028,0.08345694,-0.0412383,-0.1257635,172.17.160.76,10.64.29.0,1,unknown,1,2014-11-15 18:18:30.461,134,2014-11-15 18:16:20.024,3
2014-11-15 18:18:30.569,48049,1601.633,40.10508,-88.22189,236.3962,0.28,288.2812,12,10,1416097110,-0.29245,-0.3991089,0.8109741,-15.78441,-32.03048,-2.211304,205.6,208.6823,15,-0.09362502,-0.2687034,-0.1305652,0.300699,-2.763272,0.373271,0.01880829,-0.1697089,-0.08938402,0.02448313,-0.01064208,-0.04029827,172.17.160.76,10.64.29.0,1,unknown,1,2014-11-15 18:18:30.461,134,2014-11-15 18:16:20.024,3
2014-11-15 18:18:30.602,48050,1601.667,40.10508,-88.22189,236.3962,0.28,288.2812,12,10,1416097110,-0.3573456,-0.3178406,0.962616,-15.75004,-32.20255,-2.044067,205.4614,208.5437,15,-0.1809312,-0.227418,-0.1565579,0.3027539,-2.768048,0.3749836,-0.08768485,-0.2061358,-0.1358823,0.03652159,-0.03433167,-0.05886523,172.17.160.76,10.64.29.0,1,unknown,1,2014-11-15 18:18:30.461,134,2014-11-15 18:16:20.024,3
2014-11-15 18:18:30.636,48051,1601.7,40.10508,-88.22189,236.3962,0.28,288.2812,12,10,1416097110,-0.4115295,-0.4555664,0.8254242,-15.8875,-32.89078,-1.843445,205.1022,208.1846,15,0.05016011,-0.1949844,-0.06808797,0.3063475,-2.772865,0.3782268,0.0753272,-0.03032148,-0.06020183,-0.07115892,0.04496293,0.09925196,172.17.160.76,10.64.29.0,1,unknown,1,2014-11-15 18:18:30.461,134,2014-11-15 18:16:20.024,3
2014-11-15 18:18:30.669,48052,1601.733,40.10508,-88.22189,236.3962,0.28,288.2812,12,10,1416097110,-0.4019775,-0.3865051,0.8983154,-15.47513,-32.89079,-1.642761,204.6066,207.6889,15,-0.1259577,-0.104927,0.02751764,0.3094869,-2.779475,0.376181,-0.02294768,-0.2022466,-0.03844818,-0.0767817,-0.1081995,-0.05992829,172.17.160.76,10.64.29.0,1,unknown,1,2014-11-15 18:18:30.461,134,2014-11-15 18:16:20.024,3
2014-11-15 18:18:30.703,48053,1601.767,40.10508,-88.22189,236.3962,0.28,288.2812,12,10,1416097110,-0.4482727,-0.2929535,0.9656219,-15.64695,-33.06284,-1.40863,204.5872,207.6695,15,-0.01528761,-0.001214934,0.1199983,0.3088671,-2.781473,0.3773104,-0.06250893,-0.03798739,0.04217603,-0.0743787,-0.01808372,0.02828976,172.17.160.76,10.64.29.0,1,unknown,1,2014-11-15 18:18:30.461,134,2014-11-15 18:16:20.024,3
2014-11-15 18:18:30.736,48054,1601.8,40.10508,-88.22189,236.3962,0.28,288.2812,12,10,1416097110,-0.4129181,-0.4170227,0.8942871,-15.57822,-33.20049,-1.542358,204.4934,207.5757,15,0.0819231,0.06317977,0.07008374,0.3056801,-2.778672,0.37514,0.1142495,0.09445333,0.1441138,-0.1179554,0.07344927,0.09577167,172.17.160.76,10.64.29.0,1,unknown,1,2014-11-15 18:18:30.461,134,2014-11-15 18:16:20.024,3
2014-11-15 18:18:30.769,48055,1601.833,40.10508,-88.22189,236.3962,0.28,288.2812,12,10,1416097110,-0.4225464,-0.297287,0.8889618,-15.68131,-33.09724,-1.776489,204.6138,207.6961,15,0.09123085,0.2140004,0.2035284,0.3031572,-2.769487,0.3672617,0.1282228,0.2602356,0.1481187,-0.06604824,-0.01952474,0.06528116,172.17.160.76,10.64.29.0,6,unknown,1,2014-11-15 18:18:30.461,134,2014-11-15 18:16:20.024,3
2014-11-15 18:18:30.803,48056,1601.867,40.10508,-88.22189,236.3962,0.28,288.2812,12,10,1416097110,-0.3313446,-0.3977356,0.8250732,-15.54386,-32.82195,-2.177917,204.6797,207.762,15,0.07507052,0.0398377,0.2154095,0.2958749,-2.757907,0.3575429,0.1587243,0.1313732,0.2524126,-0.03808134,0.00889388,-0.03959331,172.17.160.76,10.64.29.0,6,unknown,1,2014-11-15 18:18:30.461,134,2014-11-15 18:16:20.024,3
2014-11-15 18:18:30.836,48057,1601.9,40.10508,-88.22189,236.3962,0.28,288.2812,12,10,1416097110,-0.3598633,-0.362915,0.8996582,-15.37204,-32.44341,-2.211304,204.7157,207.798,15,0.1218535,0.08803079,0.2685622,0.2923666,-2.754492,0.3530582,0.1544725,0.1143095,0.2438467,0.02287585,-0.05196658,-0.04381781,172.17.160.76,10.64.29.0,6,unknown,1,2014-11-15 18:18:30.461,134,2014-11-15 18:16:20.024,3
2014-11-15 18:18:30.869,48058,1601.933,40.10508,-88.22189,236.3962,0.28,288.2812,12,10,1416097110,-0.3321228,-0.345993,0.8634338,-15.54386,-32.54665,-1.910278,204.7297,207.812,15,0.09622481,0.04769668,0.2726917,0.2830148,-2.745072,0.3409692,0.1862214,0.1414892,0.3277279,0.004114419,-0.02851434,0.0303502,172.17.160.76,10.64.29.0,6,unknown,1,2014-11-15 18:18:30.461,134,2014-11-15 18:16:20.024,3
2014-11-15 18:18:30.903,48059,1601.967,40.10508,-88.22189,236.3962,0.28,288.2812,12,10,1416097110,-0.3377991,-0.3028412,0.8675537,-15.71568,-32.78753,-1.676086,204.7208,207.8031,15,0.1038375,-0.003783287,0.2097647,0.2771929,-2.740444,0.3335282,0.1544652,0.05470698,0.2307949,0.04097073,0.009141508,-0.003914123,172.17.160.76,10.64.29.0,6,unknown,1,2014-11-15 18:18:30.461,134,2014-11-15 18:16:20.024,3
2014-11-15 18:18:30.936,48060,1602,40.10508,-88.22189,236.3962,0.28,288.2812,12,10,1416097110,-0.3651733,-0.3410034,0.87323,-16.05932,-32.37459,-1.475464,205.2656,208.3479,15,0.1176995,0.04304414,0.2205742,0.2710031,-2.735227,0.3228239,0.1970952,0.102622,0.2468097,0.01889825,-0.02311674,-0.01926102,172.17.160.76,10.64.29.0,6,unknown,1,2014-11-15 18:18:30.461,134,2014-11-15 18:16:20.024,3
2014-11-15 18:18:30.969,48061,1602.033,40.10508,-88.22189,236.3962,0.28,288.2812,12,10,1416097110,-0.3786621,-0.2688904,0.848877,-16.91842,-31.92724,-1.375122,206.4703,209.5526,15,0.1038271,0.01221166,0.2172793,0.2679703,-2.731995,0.3176913,0.1683635,0.119693,0.226823,0.01313851,-0.0286292,0.001850335,172.17.160.76,10.64.29.0,6,unknown,1,2014-11-15 18:18:30.461,134,2014-11-15 18:16:20.024,3
2014-11-15 18:18:31.003,48062,1602.067,40.10508,-88.22189,236.3962,0.28,288.2812,12,10,1416097110,-0.3363342,-0.352478,0.7914276,-16.95279,-31.34224,-1.40863,206.9293,210.0116,15,0.06973221,-0.05169515,0.1947793,0.2619932,-2.727641,0.3077917,0.1778513,-0.004604669,0.2303788,0.01951179,0.02565688,-0.05410771,172.17.160.76,10.64.29.0,6,unknown,1,2014-11-15 18:18:30.461,134,2014-11-15 18:16:20.024,3
2014-11-15 18:18:31.036,48063,1602.1,40.10508,-88.22189,236.3962,0.28,288.2812,12,10,1416097110,-0.3316193,-0.310318,0.8686371,-17.46825,-31.17017,-1.1745,207.6021,210.6844,15,0.001542503,0.03341096,0.2039747,0.2592089,-2.726883,0.3031973,0.1331555,0.01544706,0.209422,0.0426268,-0.03527389,-0.08906266,172.17.160.76,10.64.29.0,6,unknown,1,2014-11-15 18:18:30.461,134,2014-11-15 18:16:20.024,3
2014-11-15 18:18:31.070,48064,1602.133,40.10508,-88.22188,238.0947,0.43,315.7031,12,10,1416097111,-0.3012238,-0.2795105,0.8220062,-17.43388,-30.86047,-0.9403687,207.6463,210.7286,15,-0.0270191,-0.1140445,0.09291103,0.2491922,-2.720513,0.2951673,0.03737448,0.00549942,0.1524081,0.07313745,0.03320945,0.0124257,172.17.160.76,10.64.29.0,6,unknown,1,2014-11-15 18:18:30.461,134,2014-11-15 18:16:20.024,3
2014-11-15 18:18:31.102,48065,1602.167,40.10508,-88.22188,238.0947,0.43,315.7031,12,10,1416097111,-0.2991333,-0.3546143,0.8275146,-17.67443,-30.82605,-0.9069824,207.6778,210.7601,15,-0.05027915,-0.1975549,0.00763981,0.248217,-2.720554,0.2943449,0.03640337,-0.0469032,0.1075535,0.0744196,0.03310917,-0.01861605,172.17.160.76,10.64.29.0,6,unknown,1,2014-11-15 18:18:30.461,134,2014-11-15 18:16:20.024,3
2014-11-15 18:18:31.136,48066,1602.2,40.10508,-88.22188,238.0947,0.43,315.7031,12,10,1416097111,-0.3434753,-0.3047333,0.8316193,-17.57133,-30.72282,-1.074127,207.9968,211.0791,15,-0.18984,-0.1881374,-0.02044802,0.2471237,-2.724735,0.2939321,-0.05713588,-0.0986447,0.003605974,0.08839134,-0.06489629,-0.04763571,172.17.160.76,10.64.29.0,6,unknown,2,2014-11-15 18:18:31.080,134,2014-11-15 18:16:20.024,3
2014-11-15 18:18:31.169,48067,1602.233,40.10508,-88.22188,238.0947,0.43,315.7031,12,10,1416097111,-0.3358307,-0.3047028,0.8381958,-17.43388,-31.13575,-0.7396851,207.5828,210.6651,15,-0.1895052,-0.2028141,-0.1351666,0.2460766,-2.729186,0.2985521,-0.1208701,-0.1332557,-0.08125631,0.06052943,0.01398529,-0.0348564,172.17.160.76,10.64.29.0,6,unknown,2,2014-11-15 18:18:31.080,134,2014-11-15 18:16:20.024,3
2014-11-15 18:18:31.202,48068,1602.267,40.10508,-88.22188,238.0947,0.43,315.7031,12,10,1416097111,-0.3649139,-0.3243256,0.8976135,-17.50261,-31.20457,-0.4721375,207.5186,210.6009,15,-0.2469943,-0.2391774,-0.1701717,0.2482916,-2.734263,0.3042092,-0.1750113,-0.1657382,-0.1650818,0.03067896,-0.04428755,-0.04782153,172.17.160.76,10.64.29.0,6,unknown,2,2014-11-15 18:18:31.080,134,2014-11-15 18:16:20.024,3
2014-11-15 18:18:31.236,48069,1602.3,40.10508,-88.22188,238.0947,0.43,315.7031,12,10,1416097111,-0.4103546,-0.3341827,0.8984528,-16.98714,-31.58311,-0.5055847,206.7548,209.8371,15,-0.1460059,-0.2001834,-0.06525783,0.2499273,-2.739604,0.3103842,-0.1411245,-0.1481548,-0.08550503,-0.008702301,0.01382901,0.04059044,172.17.160.76,10.64.29.0,6,unknown,2,2014-11-15 18:18:31.080,134,2014-11-15 18:16:20.024,3
2014-11-15 18:18:31.269,48070,1602.333,40.10508,-88.22188,238.0947,0.43,315.7031,12,10,1416097111,-0.4100494,-0.3075256,0.8909149,-16.81532,-31.13575,-1.007233,206.9556,210.0379,15,-0.1683709,-0.2342953,-0.08127595,0.2504154,-2.743885,0.3136461,-0.07618932,-0.1500812,-0.05497544,-0.04194318,-0.02565383,0.02147903,172.17.160.76,10.64.29.0,6,unknown,2,2014-11-15 18:18:31.080,134,2014-11-15 18:16:20.024,3
2014-11-15 18:18:31.303,48071,1602.367,40.10508,-88.22188,238.0947,0.43,315.7031,12,10,1416097111,-0.3770447,-0.2879333,0.9054108,-16.74659,-31.13575,-1.141052,206.9565,210.0388,15,-0.07148457,-0.1201182,-0.01097968,0.2506695,-2.749838,0.3187576,-0.09862988,-0.0924504,-0.02274359,-0.04673971,0.03555498,0.03187883,172.17.160.76,10.64.29.0,6,unknown,2,2014-11-15 18:18:31.080,134,2014-11-15 18:16:20.024,3
2014-11-15 18:18:31.336,48072,1602.4,40.10508,-88.22188,238.0947,0.43,315.7031,12,10,1416097111,-0.3609467,-0.3390198,0.8906403,-17.19333,-31.10134,-0.8399963,207.542,210.6243,15,-0.06807386,-0.08871309,-0.07345451,0.2504596,-2.751458,0.3194498,0.01757624,-0.03396992,-0.01013308,-0.01597262,0.02611087,0.02734289,172.17.160.76,172.17.160,6,unknown,2,2014-11-15 18:18:31.080,134,2014-11-15 18:16:20.024,3
2014-11-15 18:18:31.369,48073,1602.433,40.10508,-88.22188,238.0947,0.43,315.7031,12,10,1416097111,-0.3455811,-0.3036499,0.8972626,-17.53698,-32.1337,-0.5725098,207.1817,210.264,15,-0.09162632,-0.1863968,-0.06538886,0.252355,-2.753701,0.320615,-0.03668239,-0.09490298,-0.06226349,0.001617294,-0.006611795,0.01309583,172.17.160.76,10.64.29.0,6,unknown,2,2014-11-15 18:18:31.080,134,2014-11-15 18:16:20.024,3
2014-11-15 18:18:31.403,48074,1602.467,40.10508,-88.22188,238.0947,0.43,315.7031,12,10,1416097111,-0.3887177,-0.3486328,0.8695679,-17.43388,-32.51224,-0.8066101,206.9073,209.9896,15,-0.07157245,-0.1433196,0.01225107,0.2530651,-2.758146,0.3213858,0.005738332,-0.07840258,0.01515262,-0.008241237,-0.01140403,0.01530521,172.17.160.76,10.64.29.0,6,unknown,2,2014-11-15 18:18:31.080,134,2014-11-15 18:16:20.024,3
2014-11-15 18:18:31.436,48075,1602.5,40.10508,-88.22188,238.0947,0.43,315.7031,12,10,1416097111,-0.4038696,-0.288208,0.9378357,-17.15897,-32.30577,-0.739624,206.6349,209.7172,15,0.007353787,-0.1189671,0.005714878,0.252253,-2.760069,0.3212244,0.01532214,-0.06667122,0.02154732,-0.03503093,-0.0129915,0.009373679,172.17.160.76,10.64.29.0,6,unknown,2,2014-11-15 18:18:31.080,134,2014-11-15 18:16:20.024,3
2014-11-15 18:18:31.469,48076,1602.533,40.10508,-88.22188,238.0947,0.43,315.7031,12,10,1416097111,-0.3682556,-0.4042816,0.8208313,-16.84968,-31.17017,-1.04068,207.1493,210.2316,15,0.07435998,-0.1516138,0.04881281,0.2523911,-2.761233,0.3194771,0.120819,-0.06022877,0.03710837,-0.04186417,0.02877657,0.06182727,172.17.160.76,10.64.29.0,6,unknown,2,2014-11-15 18:18:31.080,134,2014-11-15 18:16:20.024,3
2014-11-15 18:18:31.502,48077,1602.567,40.10508,-88.22188,238.0947,0.43,315.7031,12,10,1416097111,-0.2904663,-0.2783661,0.8823547,-16.98714,-30.9637,-0.9068604,207.1614,210.2437,15,-0.1399699,-0.1300869,0.07201987,0.2500251,-2.763687,0.3154419,-0.04356385,-0.06494903,0.1056338,0.01763901,-0.0923665,-0.07054639,172.17.160.76,10.64.29.0,6,unknown,2,2014-11-15 18:18:31.080,134,2014-11-15 18:16:20.024,3
2014-11-15 18:18:31.536,48078,1602.6,40.10508,-88.22188,238.0947,0.43,315.7031,12,10,1416097111,-0.3283234,-0.3183441,0.859024,-17.29642,-30.654,-0.739624,207.2259,210.3082,15,-0.0362102,-0.126759,-0.04405268,0.2475004,-2.764807,0.3161618,-0.01241749,-0.06021912,0.03017674,0.05399659,0.06507128,0.02054721,172.17.160.76,10.64.29.0,6,unknown,2,2014-11-15 18:18:31.080,134,2014-11-15 18:16:20.024,3
2014-11-15 18:18:31.569,48079,1602.633,40.10508,-88.22188,238.0947,0.43,315.7031,12,10,1416097111,-0.3242798,-0.3334808,0.8856354,-17.64005,-31.54871,-0.2713928,207.2651,210.3474,15,-0.0563903,-0.1077739,-0.0640453,0.2483263,-2.766782,0.3158353,0.01979413,-0.05655235,-0.04528987,0.01966515,-0.00773358,-0.02552391,172.17.160.76,10.64.29.0,6,unknown,2,2014-11-15 18:18:31.080,134,2014-11-15 18:16:20.024,3
2014-11-15 18:18:31.603,48080,1602.667,40.10508,-88.22188,238.0947,0.43,315.7031,12,10,1416097111,-0.3452301,-0.3282166,0.8706512,-17.53696,-31.30783,-0.1042175,207.2828,210.3651,15,-0.05969076,-0.2054597,-0.05499401,0.2497967,-2.769557,0.3167588,-0.02613499,-0.1137986,-0.03055871,0.02682394,-0.002293532,0.01501041,172.17.160.76,10.64.29.0,6,unknown,2,2014-11-15 18:18:31.080,134,2014-11-15 18:16:20.024,3
2014-11-15 18:18:31.636,48081,1602.7,40.10508,-88.22188,238.0947,0.43,315.7031,12,10,1416097111,-0.362854,-0.3724823,0.8790588,-17.64005,-31.41107,-0.3382568,207.3133,210.3956,15,-0.06289774,-0.1745628,-0.04420448,0.2508808,-2.773949,0.3172554,0.008005089,-0.1170757,-0.04025722,-0.003749203,-0.01625641,-0.01595558,172.17.160.76,10.64.29.0,6,unknown,2,2014-11-15 18:18:31.080,134,2014-11-15 18:16:20.024,3
2014-11-15 18:18:31.669,48082,1602.733,40.10508,-88.22188,238.0947,0.43,315.7031,12,10,1416097111,-0.3321075,-0.3265686,0.8680115,-17.46824,-30.96372,-0.3717651,207.3593,210.4416,15,-0.1277758,-0.0663207,-0.06674414,0.2518398,-2.777291,0.3175476,-0.01331336,-0.0744895,-0.03039989,-0.02437054,-0.06024456,-0.008599055,172.17.160.76,10.64.29.0,6,unknown,2,2014-11-15 18:18:31.080,134,2014-11-15 18:16:20.024,3
2014-11-15 18:18:31.703,48083,1602.767,40.10508,-88.22188,238.0947,0.43,315.7031,12,10,1416097111,-0.3162384,-0.3120728,0.9008484,-17.57132,-31.13578,-0.67276,207.3839,210.4662,15,-0.1192992,-0.0928101,-0.05630056,0.2532027,-2.778258,0.3216433,-0.07928209,-0.01090079,-0.0563552,0.009683801,-0.004644262,-0.01548979,172.17.160.76,10.64.29.0,6,unknown,2,2014-11-15 18:18:31.080,134,2014-11-15 18:16:20.024,3
2014-11-15 18:18:31.736,48084,1602.8,40.10508,-88.22188,238.0947,0.43,315.7031,12,10,1416097111,-0.3281097,-0.3166046,0.884201,-17.43387,-31.4799,-0.67276,207.4115,210.4938,15,-0.07349126,-0.08955731,-0.04477866,0.2536184,-2.77894,0.3228634,-0.03033532,-0.03518164,-0.03225232,0.02018735,0.005210578,0.01419795,172.17.160.76,10.64.29.0,6,unknown,2,2014-11-15 18:18:31.080,134,2014-11-15 18:16:20.024,3
2014-11-15 18:18:31.769,48085,1602.833,40.10508,-88.22188,238.0947,0.43,315.7031,12,10,1416097111,-0.3374634,-0.3280945,0.8601837,-17.64005,-31.41108,-0.672821,207.4379,210.5202,15,-0.1384444,-0.1152669,-0.07651528,0.2547808,-2.779969,0.3239505,-0.04414837,-0.03316197,-0.04705084,-0.001324451,-0.01426651,-0.03195185,172.17.160.76,10.64.29.0,6,unknown,2,2014-11-15 18:18:31.080,134,2014-11-15 18:16:20.024,3
2014-11-15 18:18:31.803,48086,1602.867,40.10508,-88.22188,238.0947,0.43,315.7031,12,10,1416097111,-0.3358765,-0.323822,0.9048004,-17.43386,-31.75521,-0.6058655,207.4384,210.5207,15,-0.0978789,-0.07177645,-0.08386853,0.2554944,-2.781085,0.3258267,-0.08458153,-0.04078794,-0.07453818,-0.003273597,-0.008002358,-0.02630273,172.17.160.76,10.64.29.0,6,unknown,2,2014-11-15 18:18:31.080,134,2014-11-15 18:16:20.024,3
2014-11-15 18:18:31.836,48087,1602.9,40.10508,-88.22188,238.0947,0.43,315.7031,12,10,1416097111,-0.3069763,-0.3365021,0.8869629,-17.19332,-31.72079,-0.5724487,207.4249,210.5072,15,-0.1021016,-0.06761979,-0.09656862,0.2576241,-2.781708,0.3276027,0.0007045853,0.01027117,-0.06184966,0.00956941,-0.02199106,0.0121241,172.17.160.76,10.64.29.0,6,unknown,2,2014-11-15 18:18:31.080,134,2014-11-15 18:16:20.024,3
2014-11-15 18:18:31.869,48088,1602.933,40.10508,-88.22188,238.0947,0.43,315.7031,12,10,1416097111,-0.3324432,-0.3317108,0.8818665,-16.78095,-31.72079,-0.8399963,207.3987,210.481,15,-0.1116331,-0.1327133,-0.1340276,0.2609233,-2.784199,0.3323097,-0.06526812,-0.03580975,-0.1170485,0.02379456,0.00664711,0.00575142,172.17.160.76,10.64.29.0,6,unknown,2,2014-11-15 18:18:31.080,134,2014-11-15 18:16:20.024,3
2014-11-15 18:18:31.902,48089,1602.967,40.10508,-88.22188,238.0947,0.43,315.7031,12,10,1416097111,-0.3537598,-0.3380737,0.8835907,-16.81532,-31.54873,-0.67276,207.3855,210.4678,15,-0.1085491,-0.1313647,-0.09581867,0.264273,-2.788191,0.3343775,-0.04827134,-0.0782479,-0.1067218,-0.005520227,-0.003529629,-0.004371918,172.17.160.76,10.64.29.0,6,unknown,2,2014-11-15 18:18:31.080,134,2014-11-15 18:16:20.024,3
2014-11-15 18:18:31.936,48090,1603,40.10508,-88.22188,238.0947,0.43,315.7031,12,10,1416097111,-0.3469391,-0.323761,0.905838,-16.88404,-31.54873,-0.739624,207.0219,210.1042,15,-0.06481335,-0.09099969,-0.0947084,0.2658371,-2.789298,0.3368059,-0.03234833,-0.03656859,-0.07471557,-0.02022068,0.00227279,0.01367166,172.17.160.76,10.64.29.0,6,unknown,2,2014-11-15 18:18:31.080,134,2014-11-15 18:16:20.024,3
2014-11-15 18:18:31.969,48091,1603.033,40.10508,-88.22188,238.0947,0.43,315.7031,12,10,1416097111,-0.3307343,-0.3631134,0.8752136,-17.15895,-31.75521,-1.141052,207.0298,210.1122,15,-0.06907041,-0.1197597,-0.1043972,0.2687487,-2.790716,0.3372391,0.008184397,-0.03542987,-0.08760747,-0.02499034,-0.001895912,0.007653711,172.17.160.76,10.64.29.0,6,unknown,2,2014-11-15 18:18:31.080,134,2014-11-15 18:16:20.024,3
2014-11-15 18:18:32.003,48092,1603.067,40.10508,-88.22188,238.0947,0.43,315.7031,12,10,1416097111,-0.330307,-0.3204498,0.9121857,-16.71222,-32.06491,-1.04068,207.0161,210.0984,15,-0.07557625,-0.07370511,-0.05636368,0.2713811,-2.791742,0.3407643,-0.02066171,-0.02676393,-0.06834803,0.001698564,-0.02300076,0.001602028,172.17.160.76,10.64.29.0,6,unknown,2,2014-11-15 18:18:31.080,134,2014-11-15 18:16:20.024,3
2014-11-15 18:18:32.036,48093,1603.1,40.10508,-88.22188,238.0947,0.43,315.7031,12,10,1416097111,-0.3153839,-0.3391266,0.8705597,-16.60913,-32.16815,-1.341675,206.9854,210.0677,15,-0.07139349,-0.1011831,-0.03635588,0.2720839,-2.792272,0.3402471,-0.009054426,-0.01262102,-0.02373311,-0.007668363,0.0132702,0.02644572,172.17.160.76,10.64.29.0,6,unknown,2,2014-11-15 18:18:31.080,134,2014-11-15 18:16:20.024,3
2014-11-15 18:18:32.069,48094,1603.133,40.10508,-88.22188,237.5602,0.45,323.4375,12,10,1416097112,-0.3365784,-0.3108063,0.9292145,-16.60913,-32.44344,-0.67276,206.9492,210.0316,15,-0.08608508,-0.04214133,-0.09861739,0.2734737,-2.793111,0.3413718,-0.03125748,-0.009874464,-0.08413833,0.001942719,-0.003186866,0.005029017,172.17.160.76,10.64.29.0,6,unknown,2,2014-11-15 18:18:31.080,134,2014-11-15 18:16:20.024,3
2014-11-15 18:18:32.103,48095,1603.167,40.10508,-88.22188,237.5602,0.45,323.4375,12,10,1416097112,-0.3414001,-0.3312988,0.8892975,-16.81531,-32.09932,-0.9403687,206.9411,210.0234,15,-0.05855998,-0.05551359,-0.0382864,0.275381,-2.792994,0.3415886,-0.006832212,0.02974786,-0.04156054,-0.03266185,0.02318628,0.03206662,172.17.160.76,10.64.29.0,6,unknown,2,2014-11-15 18:18:31.080,134,2014-11-15 18:16:20.024,3
2014-11-15 18:18:32.135,48096,1603.2,40.10508,-88.22188,237.5602,0.45,323.4375,12,10,1416097112,-0.3370819,-0.3455963,0.9018707,-17.1246,-32.40902,-0.9068604,206.9318,210.0141,15,-0.02555037,-0.03840065,-0.02133618,0.2759902,-2.79224,0.3409834,0.01654311,0.0288752,-0.01511343,-0.01881734,0.003115167,0.003798974,172.17.160.76,10.64.29.0,6,unknown,2,2014-11-15 18:18:31.080,134,2014-11-15 18:16:20.024,3
2014-11-15 18:18:32.169,48097,1603.233,40.10508,-88.22188,237.5602,0.45,323.4375,12,10,1416097112,-0.3414917,-0.333847,0.8847198,-16.29985,-32.06491,-1.308228,206.902,209.9843,15,-0.05218038,-0.01821389,-0.02325312,0.2766263,-2.791405,0.3395965,0.03462151,0.02258714,-0.002476416,-0.002400814,-0.006614991,0.01567314,172.17.160.76,10.64.29.0,6,unknown,2,2014-11-15 18:18:31.080,134,2014-11-15 18:16:20.024,3
2014-11-15 18:18:32.203,48098,1603.267,40.10508,-88.22188,237.5602,0.45,323.4375,12,10,1416097112,-0.3506622,-0.3134155,0.8940582,-16.5404,-32.09932,-1.341675,206.8893,209.9716,15,-0.02014815,0.02316364,-0.02952407,0.2767272,-2.788574,0.3393125,-0.003639598,0.0670331,-0.02969479,-0.01882861,0.01156503,-0.0002046013,172.17.160.76,10.64.29.0,6,unknown,2,2014-11-15 18:18:31.080,134,2014-11-15 18:16:20.024,3
2014-11-15 18:18:32.236,48099,1603.3,40.10508,-88.22188,237.5602,0.45,323.4375,12,10,1416097112,-0.309494,-0.3636017,0.8566132,-15.88748,-32.06491,-1.107483,206.8395,209.9218,15,-0.04154531,0.003136671,-0.009381251,0.2770288,-2.784564,0.335856,0.05065969,0.08318402,0.0009778629,-0.02069669,0.01616196,0.009467125,172.17.160.76,10.64.29.0,6,unknown,2,2014-11-15 18:18:31.080,134,2014-11-15 18:16:20.024,3
2014-11-15 18:18:32.269,48100,1603.333,40.10508,-88.22188,237.5602,0.45,323.4375,12,10,1416097112,-0.2843018,-0.3207855,0.8916473,-16.33422,-32.44344,-1.14093,206.7915,209.8738,15,-0.07233652,-0.001417867,-0.05174921,0.2772651,-2.781579,0.3360333,-0.008983496,0.06602938,-0.0233044,0.04272783,-0.03997558,-0.01788597,172.17.160.76,10.64.29.0,6,unknown,2,2014-11-15 18:18:31.080,134,2014-11-15 18:16:20.024,3
2014-11-15 18:18:32.303,48101,1603.367,40.10508,-88.22188,237.5602,0.45,323.4375,12,10,1416097112,-0.2915649,-0.3233337,0.8443756,-16.09367,-32.75314,-0.8399353,206.7601,209.8424,15,-0.06164153,-0.03238244,-0.071059,0.2785089,-2.782229,0.3368692,-0.007860054,0.04990671,-0.04674948,0.04719847,-0.0106679,0.01137689,172.17.160.76,10.64.29.0,6,unknown,2,2014-11-15 18:18:31.080,134,2014-11-15 18:16:20.024,3
2014-11-15 18:18:32.336,48102,1603.4,40.10508,-88.22188,237.5602,0.45,323.4375,12,10,1416097112,-0.3384399,-0.3448029,0.8794556,-16.43731,-33.30374,-0.9737549,206.705,209.7873,15,-0.1073824,-0.08690374,-0.11788,0.2815259,-2.782106,0.3388358,-0.04400298,-0.007823838,-0.09574647,0.03314655,-0.001061002,-0.03528959,172.17.160.76,10.64.29.0,6,stationary,1,2014-11-15 18:18:32.317,134,2014-11-15 18:16:20.024,3
2014-11-15 18:18:32.369,48103,1603.433,40.10508,-88.22188,237.5602,0.45,323.4375,12,10,1416097112,-0.3553009,-0.3477478,0.9026184,-16.29985,-33.02844,-1.040619,206.6533,209.7356,15,-0.08076596,-0.04850362,-0.09654784,0.284016,-2.783363,0.3409269,-0.02802206,-0.003549933,-0.09153797,-0.016929,-0.0157216,0.01101327,172.17.160.76,10.64.29.0,6,stationary,1,2014-11-15 18:18:32.317,134,2014-11-15 18:16:20.024,3
2014-11-15 18:18:32.403,48104,1603.467,40.10508,-88.22188,237.5602,0.45,323.4375,12,10,1416097112,-0.3459015,-0.3170013,0.9022827,-16.33422,-32.64991,-0.9403076,206.6323,209.7146,15,-0.0796927,0.007901599,-0.08457854,0.2860631,-2.782961,0.3422001,-0.01631891,0.06357144,-0.06681435,-0.01948626,-0.003550867,0.0204412,172.17.160.76,10.64.29.0,6,stationary,1,2014-11-15 18:18:32.317,134,2014-11-15 18:16:20.024,3
2014-11-15 18:18:32.436,48105,1603.5,40.10508,-88.22188,237.5602,0.45,323.4375,12,10,1416097112,-0.3450317,-0.3361969,0.8802338,-16.12804,-31.96167,-1.074127,206.5947,209.677,15,-0.05199183,-0.03146045,-0.08913547,0.2879821,-2.781475,0.343328,-0.008858674,0.0605066,-0.07430268,-0.01408235,0.01962138,0.02104427,172.17.160.76,10.64.29.0,6,stationary,1,2014-11-15 18:18:32.317,134,2014-11-15 18:16:20.024,3
2014-11-15 18:18:32.469,48106,1603.533,40.10508,-88.22188,237.5602,0.45,323.4375,12,10,1416097112,-0.3228912,-0.3508148,0.8729248,-16.19676,-32.03049,-1.140991,206.5795,209.6618,15,-0.07863782,-0.0495593,-0.09549989,0.2911124,-2.781294,0.343827,0.0007154105,0.02541945,-0.07664639,-0.01167813,-0.01981054,-0.01885376,172.17.160.76,10.64.29.0,6,stationary,1,2014-11-15 18:18:32.317,134,2014-11-15 18:16:20.024,3
2014-11-15 18:18:32.503,48107,1603.567,40.10508,-88.22188,237.5602,0.45,323.4375,12,10,1416097112,-0.2954102,-0.3523102,0.8690796,-16.33422,-32.44344,-1.743103,206.5489,209.6312,15,-0.08395136,-0.0357588,-0.09753028,0.2933697,-2.78147,0.345054,-0.01313893,0.01902646,-0.07981268,0.008727305,-0.01256729,-0.007766828,172.17.160.76,10.64.29.0,6,stationary,1,2014-11-15 18:18:32.317,134,2014-11-15 18:16:20.024,3
2014-11-15 18:18:32.536,48108,1603.6,40.10508,-88.22188,237.5602,0.45,323.4375,12,10,1416097112,-0.2865906,-0.3420563,0.8768768,-16.1624,-32.68432,-1.709656,206.5081,209.5904,15,-0.1254927,-0.08266825,-0.1209744,0.2958462,-2.782158,0.3469175,-0.03657493,0.02324511,-0.08501209,0.03537938,-0.01230959,-0.01124869,172.17.160.76,10.64.29.0,6,stationary,1,2014-11-15 18:18:32.317,134,2014-11-15 18:16:20.024,3
2014-11-15 18:18:32.569,48109,1603.633,40.10508,-88.22188,237.5602,0.45,323.4375,12,10,1416097112,-0.3356934,-0.3432617,0.8634949,-15.6813,-32.82197,-1.174561,206.4478,209.5301,15,-0.1201136,-0.1157953,-0.145583,0.2998017,-2.785217,0.3513446,-0.0567551,-0.0259185,-0.1234125,0.02814365,0.01478436,0.007259788,172.17.160.76,10.64.29.0,6,stationary,1,2014-11-15 18:18:32.317,134,2014-11-15 18:16:20.024,3
2014-11-15 18:18:32.603,48110,1603.667,40.10508,-88.22188,237.5602,0.45,323.4375,12,10,1416097112,-0.3478851,-0.3732605,0.8660583,-15.54385,-32.6155,-1.107666,206.4122,209.4945,15,-0.1255047,-0.09009048,-0.1188904,0.3040021,-2.788806,0.3550262,-0.06746487,-0.04589923,-0.1171116,-0.02404057,-0.003062539,-0.02172218,172.17.160.76,10.64.29.0,6,stationary,1,2014-11-15 18:18:32.317,134,2014-11-15 18:16:20.024,3
2014-11-15 18:18:32.636,48111,1603.7,40.10508,-88.22188,237.5602,0.45,323.4375,12,10,1416097112,-0.3074188,-0.3674927,0.8941498,-15.3033,-32.44344,-1.207916,206.3402,209.4225,15,-0.1148105,-0.07527532,-0.1262828,0.3052917,-2.788706,0.3577353,-0.05362266,-0.006482012,-0.1031566,-0.02415691,-0.02310665,-0.01291396,172.17.160.76,10.64.29.0,6,stationary,1,2014-11-15 18:18:32.317,134,2014-11-15 18:16:20.024,3
2014-11-15 18:18:32.669,48112,1603.733,40.10508,-88.22188,237.5602,0.45,323.4375,12,10,1416097112,-0.3106079,-0.3411255,0.8790894,-15.40639,-32.20256,-1.709595,206.2744,209.3567,15,-0.163712,-0.09688634,-0.1771647,0.309888,-2.791847,0.3625483,-0.09718608,-0.04089832,-0.1604965,0.02274664,0.001539139,0.01792516,172.17.160.76,10.64.29.0,6,stationary,1,2014-11-15 18:18:32.317,134,2014-11-15 18:16:20.024,3
2014-11-15 18:18:32.702,48113,1603.767,40.10508,-88.22188,237.5602,0.45,323.4375,12,10,1416097112,-0.3014221,-0.3645477,0.8722839,-15.13147,-32.54668,-1.776489,206.2336,209.3159,15,-0.1488142,-0.1159887,-0.1730751,0.3124204,-2.793339,0.3655059,-0.09504702,-0.02707786,-0.1593703,0.008106947,0.01629634,0.001210959,172.17.160.76,10.64.29.0,6,stationary,1,2014-11-15 18:18:32.317,134,2014-11-15 18:16:20.024,3
2014-11-15 18:18:32.736,48114,1603.8,40.10508,-88.22188,237.5602,0.45,323.4375,12,10,1416097112,-0.312851,-0.3857574,0.8740845,-15.44075,-33.06286,-1.141052,206.1496,209.2319,15,-0.1680154,-0.1234013,-0.1709193,0.3193274,-2.799724,0.37163,-0.07055878,-0.07492534,-0.1618382,0.009918383,-0.01535961,-0.001062237,172.17.160.76,10.64.29.0,6,stationary,1,2014-11-15 18:18:32.317,134,2014-11-15 18:16:20.024,3
2014-11-15 18:18:32.769,48115,1603.833,40.10508,-88.22188,237.5602,0.45,323.4375,12,10,1416097112,-0.3272247,-0.361557,0.8972015,-14.95965,-33.40697,-1.074127,206.0415,209.1238,15,-0.1296491,-0.1010339,-0.1613918,0.3230592,-2.802807,0.3759819,-0.1025331,-0.04725017,-0.1573269,-0.0130623,-0.01033167,-0.0001254897,172.17.160.76,10.64.29.0,6,stationary,1,2014-11-15 18:18:32.317,134,2014-11-15 18:16:20.024,3
2014-11-15 18:18:32.803,48116,1603.867,40.10508,-88.22188,237.5602,0.45,323.4375,12,10,1416097112,-0.3153839,-0.3846588,0.8795929,-15.16584,-33.40697,-0.739624,205.9882,209.0705,15,-0.1083805,-0.103042,-0.1444983,0.3254813,-2.804196,0.378214,-0.06630765,-0.03337371,-0.1467738,-0.02012253,0.0109239,0.0194019,172.17.160.76,10.64.29.0,6,stationary,1,2014-11-15 18:18:32.317,134,2014-11-15 18:16:20.024,3
2014-11-15 18:18:32.836,48117,1603.9,40.10508,-88.22188,237.5602,0.45,323.4375,12,10,1416097112,-0.3050995,-0.3907318,0.8832397,-14.8222,-33.40697,-1.743042,205.8799,208.9622,15,-0.1510119,-0.07536906,-0.1410085,0.3296477,-2.805841,0.3819723,-0.05996365,0.0008216779,-0.1211406,-0.009649971,-0.01190747,0.003474641,172.17.160.76,10.64.29.0,6,stationary,1,2014-11-15 18:18:32.317,134,2014-11-15 18:16:20.024,3
2014-11-15 18:18:32.869,48118,1603.933,40.10508,-88.22188,237.5602,0.45,323.4375,12,10,1416097112,-0.3007355,-0.3760986,0.8907013,-14.58165,-33.30374,-1.977173,205.7569,208.8392,15,-0.1456991,-0.07745697,-0.135732,0.3333547,-2.806971,0.3888836,-0.09940153,-0.003454984,-0.1273869,-0.001209295,-0.01157621,0.009230718,172.17.160.76,10.64.29.0,6,stationary,1,2014-11-15 18:18:32.317,134,2014-11-15 18:16:20.024,3
2014-11-15 18:18:32.903,48119,1603.967,40.10508,-88.22188,237.5602,0.45,323.4375,12,10,1416097112,-0.272583,-0.389801,0.8526459,-14.3411,-33.06285,-2.278137,205.6927,208.775,15,-0.1286429,-0.1168536,-0.1455567,0.3375112,-2.809879,0.3928043,-0.06213032,-0.03637029,-0.1213312,0.009830342,0.009413339,0.01504261,172.17.160.76,10.64.29.0,6,stationary,1,2014-11-15 18:18:32.317,134,2014-11-15 18:16:20.024,3
2014-11-15 18:18:32.936,48120,1604,40.10508,-88.22188,237.5602,0.45,323.4375,12,10,1416097112,-0.2686157,-0.4202576,0.8144379,-14.16928,-33.16608,-1.709595,205.5466,208.6289,15,-0.1658856,-0.1308486,-0.172028,0.3401637,-2.812767,0.3949611,-0.07913344,-0.05885655,-0.1447402,0.01799485,0.00214287,-0.005501347,172.17.160.76,10.64.29.0,6,stationary,1,2014-11-15 18:18:32.317,134,2014-11-15 18:16:20.024,3
2014-11-15 18:18:32.969,48121,1604.033,40.10508,-88.22188,237.5602,0.45,323.4375,12,10,1416097112,-0.2350464,-0.4166718,0.8342743,-14.13491,-33.26932,-1.743103,205.4716,208.5539,15,-0.2510325,-0.1343453,-0.2184327,0.3457403,-2.818285,0.4043012,-0.1760159,-0.06980501,-0.1932679,0.02825078,-0.03559398,-0.05782526,172.17.160.76,10.64.29.0,6,unknown,1,2014-11-15 18:18:32.935,134,2014-11-15 18:16:20.024,3
2014-11-15 18:18:33.003,48122,1604.067,40.10508,-88.22188,237.5602,0.45,323.4375,12,10,1416097112,-0.1798553,-0.415329,0.85672,-14.51292,-33.44138,-2.110962,203.5883,206.6706,15,-0.3392465,-0.1722351,-0.3170198,0.3502909,-2.822107,0.4120311,-0.2217539,-0.07515585,-0.2355656,0.06632646,-0.01522392,-0.03412607,172.17.160.76,10.64.29.0,6,unknown,1,2014-11-15 18:18:32.935,134,2014-11-15 18:16:20.024,3
2014-11-15 18:18:33.036,48123,1604.1,40.10508,-88.22188,237.5602,0.45,323.4375,12,10,1416097112,-0.2565308,-0.3833771,0.8938141,-13.9631,-32.95962,-2.579224,202.6128,205.6951,15,-0.349741,-0.1769037,-0.3732636,0.3566932,-2.827666,0.4224145,-0.2886342,-0.1003135,-0.3352271,0.1017982,-0.005365056,-0.01080575,172.17.160.76,10.64.29.0,6,unknown,1,2014-11-15 18:18:32.935,134,2014-11-15 18:16:20.024,3
