time,timestamp,recordtime,lat,long,alt,speed,course,verticalAccuracy,horizontalAccuracy,locTimeStamp,accelerationX,accelerationY,accelerationZ,HeadingX,HeadingY,HeadingZ,TrueHeading,MagneticHeading,HeadingAccuracy,RotationX,RotationY,RotationZ,motionYaw,motionRoll,motionPitch,motionRotationRateX,motionRotationRateY,motionRotationRateZ,motionUserAccelerationX,motionUserAccelerationY,motionUserAccelerationZ,en0,pdp_ip0,DeviceOrientation,Activity,Activity Confidence,Activity Start,Steps,Last Step Date,State
2014-11-13 14:02:54.532,44430,1481,40.11402,-88.22449,225.1876,-1,-1,10,65.3494,1415908971,0.01403809,-0.02520752,-1.002106,20.48823,-30.06111,7.009949,211.3722,214.4546,25,-0.05756423,-0.06385515,-0.01710442,-0.6888348,0.01300879,0.02510764,0.000600506,-3.836356e-06,0.0002185453,0.0007133288,-5.674267e-05,0.003811659,172.17.160.76,10.175.81.193,5,stationary,2,2014-11-13 14:00:32.598,15,2014-11-13 13:57:29.604,0
2014-11-13 14:02:54.566,44431,1481.033,40.11402,-88.22449,225.1876,-1,-1,10,65.3494,1415908971,0.01168823,-0.02442932,-0.9988556,20.69497,-30.26784,7.61322,211.3669,214.4492,25,-0.05863428,-0.06490923,-0.01604448,-0.6888284,0.01314114,0.02513013,0.001667646,-2.34746e-07,0.0002141092,0.002335795,-0.00108711,0.002710731,172.17.160.76,10.175.81.193,5,stationary,2,2014-11-13 14:00:32.598,15,2014-11-13 13:57:29.604,0
2014-11-13 14:02:54.599,44432,1481.067,40.11402,-88.22449,225.1876,-1,-1,10,65.3494,1415908971,0.01118469,-0.02508545,-0.9986725,20.66051,-29.68211,7.780762,211.373,214.4554,25,-0.05970195,-0.06703389,-0.01605167,-0.6888263,0.01312596,0.02510071,-0.0004649804,2.855092e-07,0.0002220039,9.266614e-05,0.0008976366,-0.0002943118,172.17.160.76,10.175.81.193,5,stationary,2,2014-11-13 14:00:32.598,15,2014-11-13 13:57:29.604,0
2014-11-13 14:02:54.632,44433,1481.1,40.11402,-88.22449,225.1876,-1,-1,10,65.3494,1415908971,0.01425171,-0.02606201,-1.000809,20.76388,-29.92329,7.881348,211.3761,214.4584,25,-0.05650136,-0.06810609,-0.01713078,-0.688823,0.01305922,0.02507701,-0.00153134,1.549446e-07,0.0002259075,-0.0008171902,-0.000163657,0.00155347,172.17.160.76,10.175.81.193,5,stationary,2,2014-11-13 14:00:32.598,15,2014-11-13 13:57:29.604,0
2014-11-13 14:02:54.666,44434,1481.133,40.11402,-88.22449,225.1876,-1,-1,10,65.3494,1415908971,0.01292419,-0.02409363,-0.9970398,20.52269,-29.33754,7.713806,211.3856,214.4679,25,-0.05650376,-0.0670355,-0.01606365,-0.6888071,0.0130449,0.02510259,0.001666384,-2.030771e-06,0.0002137773,3.636035e-05,0.0006095975,0.003109411,172.17.160.76,10.175.81.193,5,stationary,2,2014-11-13 14:00:32.598,15,2014-11-13 13:57:29.604,0
2014-11-13 14:02:54.699,44435,1481.167,40.11402,-88.22449,225.1876,-1,-1,10,65.3494,1415908971,0.01237488,-0.02597046,-1.001083,20.55715,-29.50982,7.814331,211.3896,214.472,25,-0.05756902,-0.06597236,-0.01605407,-0.6887961,0.01305351,0.02510037,0.0005990973,-0.001064369,0.0002120793,0.0004549982,-0.000369184,0.0001644084,172.17.160.76,10.175.81.193,5,stationary,2,2014-11-13 14:00:32.598,15,2014-11-13 13:57:29.604,0
2014-11-13 14:02:54.732,44436,1481.2,40.11402,-88.22449,225.1876,-1,-1,10,65.3494,1415908971,0.01365662,-0.02449036,-0.9992371,20.48823,-29.37199,7.680237,211.3999,214.4823,25,-0.05863428,-0.06490923,-0.01604448,-0.6888,0.01305069,0.02514518,-0.0004615669,-5.453474e-06,-0.0008403552,-0.001403733,-0.0005074922,0.001658681,172.17.160.76,10.175.81.193,5,stationary,2,2014-11-13 14:00:32.598,15,2014-11-13 13:57:29.604,0
2014-11-13 14:02:54.766,44437,1481.233,40.11402,-88.22449,225.1876,-1,-1,10,65.3494,1415908971,0.01243591,-0.02449036,-0.9975128,20.35041,-29.50981,7.412109,211.4037,214.486,25,-0.05650695,-0.0670275,-0.01500212,-0.6887931,0.01304885,0.02513973,-0.001531931,-0.001059936,0.0002194861,0.0007190753,-0.001214848,-0.001148775,172.17.160.76,10.175.81.193,5,stationary,2,2014-11-13 14:00:32.598,15,2014-11-13 13:57:29.604,0
2014-11-13 14:02:54.799,44438,1481.267,40.11402,-88.22449,225.1876,-1,-1,10,65.3494,1415908971,0.0146637,-0.02505493,-0.9998169,20.28151,-29.4409,7.345093,211.4043,214.4867,25,-0.05969795,-0.06597929,-0.01710761,-0.6887938,0.01298927,0.0251411,0.0006012881,0.001063371,0.0002225423,0.0004276745,-0.0008625282,-0.001117517,172.17.160.76,10.175.81.193,5,stationary,2,2014-11-13 14:00:32.598,15,2014-11-13 13:57:29.604,0
2014-11-13 14:02:54.833,44439,1481.3,40.11402,-88.22449,225.1876,-1,-1,10,65.3494,1415908971,0.01280212,-0.02536011,-0.9974518,20.14369,-29.23418,7.009949,211.4048,214.4871,25,-0.05756982,-0.06703496,-0.01605966,-0.6887895,0.01302051,0.02512528,-0.0004689805,9.130507e-06,0.001282412,-0.000381759,-0.0003290204,0.0003473184,172.17.160.76,10.175.81.193,5,stationary,2,2014-11-13 14:00:32.598,15,2014-11-13 13:57:29.604,0
2014-11-13 14:02:54.866,44440,1481.333,40.11402,-88.22449,225.1876,-1,-1,10,65.3494,1415908971,0.0144043,-0.02549744,-0.9976807,20.38488,-29.40645,7.579773,211.4081,214.4905,25,-0.05543769,-0.06703603,-0.01606765,-0.6887858,0.01301874,0.02516385,0.0005999636,1.850866e-08,0.0002167548,-0.0002426438,-0.001572203,-0.0007675197,172.17.160.76,10.175.81.193,5,stationary,2,2014-11-13 14:00:32.598,15,2014-11-13 13:57:29.604,0
2014-11-13 14:02:54.899,44441,1481.367,40.11402,-88.22449,225.1876,-1,-1,10,65.3494,1415908971,0.0133667,-0.02505493,-0.998642,20.66052,-29.54427,7.378662,211.413,214.4954,25,-0.05650216,-0.06491029,-0.01605247,-0.6887827,0.01304535,0.02519535,0.002732688,-0.001059504,0.000202584,0.001363458,-0.0003047544,0.001916888,172.17.160.76,10.175.81.193,5,stationary,2,2014-11-13 14:00:32.598,15,2014-11-13 13:57:29.604,0
2014-11-13 14:02:54.933,44442,1481.4,40.11402,-88.22449,225.1876,-1,-1,10,65.3494,1415908971,0.01257324,-0.0239563,-0.9969635,20.28152,-29.78545,7.479248,211.4083,214.4907,25,-0.05863908,-0.06702644,-0.01499413,-0.688756,0.0130564,0.02517137,-0.001534677,1.258663e-05,0.001285526,0.002008527,0.00115138,-0.001134411,172.17.160.76,10.175.81.193,5,stationary,2,2014-11-13 14:00:32.598,15,2014-11-13 13:57:29.604,0
2014-11-13 14:02:54.966,44443,1481.433,40.11402,-88.22449,225.1876,-1,-1,10,65.3494,1415908971,0.01223755,-0.02516174,-1.000534,20.41933,-29.64763,7.077026,211.4076,214.49,25,-0.05863509,-0.06597183,-0.01605007,-0.6887465,0.01305107,0.02514325,-0.0004664852,-0.001058685,0.0002143516,-0.0004733327,0.001184302,0.002635287,172.17.160.76,10.175.81.193,5,stationary,2,2014-11-13 14:00:32.598,15,2014-11-13 13:57:29.604,0
2014-11-13 14:02:54.999,44444,1481.467,40.11402,-88.22449,225.1876,-1,-1,10,65.3494,1415908971,0.01153564,-0.02574158,-0.9974365,20.17815,-29.33753,7.378723,211.4078,214.4901,25,-0.05649816,-0.06385568,-0.01710841,-0.6887189,0.01302009,0.02514992,-0.001533089,-0.001058958,0.0002181887,-0.0003965861,-0.0001212906,0.0024219,172.17.160.76,10.175.81.193,5,stationary,2,2014-11-13 14:00:32.598,15,2014-11-13 13:57:29.604,0
2014-11-13 14:02:55.032,44445,1481.5,40.11402,-88.22449,225.1876,-1,-1,10,65.3494,1415908971,0.01365662,-0.02481079,-0.9989014,20.24706,-29.06188,7.847961,211.4135,214.4958,25,-0.05756982,-0.06703496,-0.01605966,-0.6887429,0.01300814,0.02516375,-0.0004617302,-1.214408e-06,-0.0008425316,-0.0007355935,-4.642341e-05,-0.001866012,172.17.160.76,10.175.81.193,5,stationary,2,2014-11-13 14:00:32.598,15,2014-11-13 13:57:29.604,0
2014-11-13 14:02:55.066,44446,1481.533,40.11402,-88.22449,225.1876,-1,-1,10,65.3494,1415908971,0.01350403,-0.02442932,-0.9996033,19.8336,-29.19971,7.914978,211.4139,214.4962,25,-0.05756582,-0.06598035,-0.0171156,-0.6887475,0.0130298,0.02514656,-0.0004653127,6.505071e-06,0.0002189034,0.001348469,0.0003788979,0.0009722731,172.17.160.76,10.175.81.193,5,stationary,2,2014-11-13 14:00:32.598,15,2014-11-13 13:57:29.604,0
2014-11-13 14:02:55.099,44447,1481.567,40.11402,-88.22449,225.1876,-1,-1,10,65.3494,1415908971,0.01171875,-0.02497864,-0.9992371,19.86805,-29.64764,7.881409,211.4065,214.4889,25,-0.05650535,-0.0649023,-0.01499093,-0.6887467,0.01301845,0.02516532,0.0005963489,-0.001049104,0.001270738,-0.000410199,-0.0009756448,0.001185572,172.17.160.76,10.175.81.193,5,stationary,2,2014-11-13 14:00:32.598,15,2014-11-13 13:57:29.604,0
2014-11-13 14:02:55.133,44448,1481.6,40.11402,-88.22449,225.1876,-1,-1,10,65.3494,1415908971,0.01457214,-0.0252533,-0.9987793,20.07478,-29.71655,7.814392,211.399,214.4814,25,-0.05650136,-0.06384769,-0.01604688,-0.6887529,0.01294413,0.02518664,-0.0004637472,-0.001065338,-0.0008484633,-0.001602383,0.0008309467,-0.0003551377,172.17.160.76,10.175.81.193,5,stationary,2,2014-11-13 14:00:32.598,15,2014-11-13 13:57:29.604,0
2014-11-13 14:02:55.166,44449,1481.633,40.11402,-88.22449,225.1876,-1,-1,10,65.3494,1415908971,0.01446533,-0.02450562,-0.9995117,20.31597,-29.6821,7.713867,211.3938,214.4762,25,-0.05969955,-0.06384609,-0.01603489,-0.6887528,0.01294936,0.02522991,0.00166395,-0.002121381,0.0001993913,0.0004218186,0.001072569,0.0001625028,172.17.160.76,10.175.81.193,5,stationary,2,2014-11-13 14:00:32.598,15,2014-11-13 13:57:29.604,0
2014-11-13 14:02:55.199,44450,1481.667,40.11402,-88.22449,225.1876,-1,-1,10,65.3494,1415908971,0.01280212,-0.02552795,-1.00061,20.2126,-29.44091,7.613281,211.3936,214.476,25,-0.05863588,-0.06703443,-0.01605567,-0.6887577,0.01297603,0.02518828,-0.0004670044,-0.002116353,0.0002064299,0.00233302,0.0002985336,0.002497801,172.17.160.76,10.175.81.193,5,stationary,2,2014-11-13 14:00:32.598,15,2014-11-13 13:57:29.604,0
2014-11-13 14:02:55.232,44451,1481.7,40.11402,-88.22449,225.1876,-1,-1,10,65.3494,1415908971,0.01580811,-0.02471924,-1.000061,19.86804,-29.57873,7.345215,211.3833,214.4656,25,-0.06077201,-0.06808797,-0.01499173,-0.6887532,0.01295294,0.0251986,0.001668134,0.002132697,0.0002207627,-0.001000835,1.89339e-05,0.002299476,172.17.160.76,10.175.81.193,5,stationary,2,2014-11-13 14:00:32.598,15,2014-11-13 13:57:29.604,0
2014-11-13 14:02:55.266,44452,1481.733,40.11402,-88.22449,225.1876,-1,-1,10,65.3494,1415908971,0.0138092,-0.02532959,-0.9992828,19.55795,-29.75101,7.44574,211.3585,214.4408,25,-0.05756742,-0.06384715,-0.01604288,-0.6887485,0.01295676,0.02520777,0.001666034,6.979158e-06,0.0002094123,-0.001492932,0.0001501707,0.003107911,172.17.160.76,10.175.81.193,5,stationary,2,2014-11-13 14:00:32.598,15,2014-11-13 13:57:29.604,0
2014-11-13 14:02:55.299,44453,1481.767,40.11402,-88.22449,225.1876,-1,-1,10,65.3494,1415908971,0.01254272,-0.02519226,-0.9955139,19.83359,-29.88882,7.311646,211.349,214.4314,25,-0.05756982,-0.06703496,-0.01605966,-0.6887411,0.01297989,0.02526527,0.000599643,7.125859e-06,0.0002132759,4.035893e-05,-0.000631578,-0.0001897378,172.17.160.76,10.175.81.193,5,stationary,2,2014-11-13 14:00:32.598,15,2014-11-13 13:57:29.604,0
2014-11-13 14:02:55.332,44454,1481.8,40.11402,-88.22449,225.1876,-1,-1,10,65.3494,1415908971,0.0133667,-0.02461243,-0.9993439,20.41932,-29.64764,7.278137,211.3456,214.4279,25,-0.05756503,-0.06491775,-0.01711001,-0.6887341,0.01296525,0.02527539,0.0006008793,0.002131809,0.0002243664,-0.001196222,-0.0003620707,0.001473405,172.17.160.76,10.175.81.193,5,stationary,2,2014-11-13 14:00:32.598,15,2014-11-13 13:57:29.604,0
2014-11-13 14:02:55.366,44455,1481.833,40.11402,-88.22449,225.1876,-1,-1,10,65.3494,1415908971,0.01185608,-0.02474976,-0.9977875,20.83279,-29.57874,7.01001,211.3597,214.4421,25,-0.05863109,-0.06491721,-0.01710602,-0.6887439,0.01295177,0.0252779,-0.000467397,-0.001051912,0.0002103077,3.795778e-05,-0.0001611917,0.003594487,172.17.160.76,10.175.81.193,5,stationary,2,2014-11-13 14:00:32.598,15,2014-11-13 13:57:29.604,0
2014-11-13 14:02:55.399,44456,1481.867,40.11402,-88.22449,225.1876,-1,-1,10,65.3494,1415908971,0.01374817,-0.02429199,-0.9990387,20.9017,-29.78548,7.077026,211.3662,214.4486,25,-0.05756982,-0.06703496,-0.01605966,-0.688761,0.01295318,0.02526643,0.000602156,1.522131e-06,-0.000849758,0.0003874947,-0.0007524912,-0.003103849,172.17.160.76,10.175.81.193,5,stationary,2,2014-11-13 14:00:32.598,15,2014-11-13 13:57:29.604,0
2014-11-13 14:02:55.432,44457,1481.9,40.11402,-88.22449,225.1876,-1,-1,10,65.3494,1415908971,0.01251221,-0.02471924,-0.9999542,20.5916,-29.95776,7.445679,211.373,214.4554,25,-0.05863428,-0.06490923,-0.01604448,-0.6887732,0.01292245,0.02524896,0.0005978358,-0.001053302,0.0002061191,-0.0001463666,0.0002676402,0.002786882,172.17.160.76,10.175.81.193,5,stationary,2,2014-11-13 14:00:32.598,15,2014-11-13 13:57:29.604,0
2014-11-13 14:02:55.466,44458,1481.933,40.11402,-88.22449,225.1876,-1,-1,10,65.3494,1415908971,0.01171875,-0.02555847,-0.995285,20.83279,-29.99221,7.144043,211.3768,214.4592,25,-0.05863109,-0.06491721,-0.01710602,-0.6887537,0.01295042,0.02523984,0.00166897,0.002125408,-0.0008427638,0.0001766245,-0.0001534619,-0.001378899,172.17.160.76,[inet_ntoa er,5,stationary,2,2014-11-13 14:00:32.598,15,2014-11-13 13:57:29.604,0
2014-11-13 14:02:55.499,44459,1481.967,40.11402,-88.22449,225.1876,-1,-1,10,65.3494,1415908971,0.01347351,-0.025177,-1.000916,20.76388,-29.78548,7.21106,211.3812,214.4636,25,-0.05756982,-0.06703496,-0.01605966,-0.6887512,0.0129101,0.02522957,-0.000465853,0.003196507,0.0002322774,-0.001125846,0.0004618773,0.004404962,172.17.160.76,10.175.81.193,5,stationary,2,2014-11-13 14:00:32.598,15,2014-11-13 13:57:29.604,0
2014-11-13 14:02:55.532,44460,1482,40.11402,-88.22449,225.1876,-1,-1,10,65.3494,1415908971,0.01078796,-0.02453613,-0.9964752,21.03953,-29.9233,6.741821,211.3895,214.4718,25,-0.05756902,-0.06597236,-0.01605407,-0.6887432,0.01290906,0.02523118,0.0005956027,-0.003176458,0.0001932552,0.0007062476,-0.0005893727,0.0002698033,172.17.160.76,10.175.81.193,5,stationary,2,2014-11-13 14:00:32.598,15,2014-11-13 13:57:29.604,0
2014-11-13 14:02:55.566,44461,1482.033,40.11402,-88.22449,225.1876,-1,-1,10,65.3494,1415908971,0.01315308,-0.02546692,-0.997757,20.66052,-29.95776,7.579773,211.3945,214.4768,25,-0.05757222,-0.06596437,-0.01499253,-0.6887663,0.01287427,0.02525943,0.0006000053,-0.001059889,-0.0008572222,0.001503974,-0.0009578579,-0.0003865894,172.17.160.76,10.175.81.193,5,stationary,2,2014-11-13 14:00:32.598,15,2014-11-13 13:57:29.604,0
2014-11-13 14:02:55.599,44462,1482.067,40.11402,-88.22449,225.1876,-1,-1,10,65.3494,1415908971,0.01171875,-0.02445984,-0.9996948,20.59161,-29.6132,7.713867,211.3979,214.4802,25,-0.05863668,-0.06809703,-0.01606126,-0.6887411,0.01288235,0.02527416,0.0005950163,0.001081065,0.001276969,0.0002751952,-0.0001954439,0.001840717,172.17.160.76,10.175.81.193,5,stationary,2,2014-11-13 14:00:32.598,15,2014-11-13 13:57:29.604,0
2014-11-13 14:02:55.632,44463,1482.1,40.11402,-88.22449,225.1876,-1,-1,10,65.3494,1415908971,0.01353455,-0.02545166,-0.9969025,20.52271,-29.5443,7.713867,211.4009,214.4833,25,-0.05863509,-0.06597183,-0.01605007,-0.6887425,0.01290093,0.02525333,-0.0004688837,1.08567e-05,0.0002137676,-0.0002316622,-9.419955e-05,0.001673158,172.17.160.76,10.175.81.193,5,stationary,2,2014-11-13 14:00:32.598,15,2014-11-13 13:57:29.604,0
2014-11-13 14:02:55.666,44464,1482.133,40.11402,-88.22449,225.1876,-1,-1,10,65.3494,1415908971,0.0128479,-0.02540588,-0.9990234,20.55715,-29.30311,7.211121,211.4167,214.4991,25,-0.05863269,-0.06704242,-0.0171172,-0.6887014,0.01296275,0.0252276,0.0005932251,1.786987e-05,0.001271121,0.001369739,0.0002462912,0.002970005,172.17.160.76,10.175.81.193,5,stationary,2,2014-11-13 14:00:32.598,15,2014-11-13 13:57:29.604,0
2014-11-13 14:02:55.699,44465,1482.167,40.11402,-88.22449,225.1876,-1,-1,10,65.3494,1415908971,0.01359558,-0.02470398,-0.9991913,20.72943,-29.75103,6.976501,211.4205,214.5028,25,-0.05756822,-0.06490976,-0.01604847,-0.6886976,0.0129122,0.02523324,0.0005990071,-0.001058071,-0.000859158,-0.0007769967,-8.377121e-05,0.001398861,172.17.160.76,10.175.81.193,5,stationary,2,2014-11-13 14:00:32.598,15,2014-11-13 13:57:29.604,0
2014-11-13 14:02:55.732,44466,1482.2,40.11402,-88.22449,225.1876,-1,-1,10,65.3494,1415908971,0.01533508,-0.02471924,-0.9972687,20.41933,-29.64766,7.479248,211.4257,214.508,25,-0.05863828,-0.06596383,-0.01498854,-0.6887044,0.01294102,0.02522435,-0.000465713,0.001067483,-0.0008440468,0.0003996437,-0.0002299806,-0.0002644952,172.17.160.76,10.175.81.193,5,stationary,2,2014-11-13 14:00:32.598,15,2014-11-13 13:57:29.604,0
2014-11-13 14:02:55.765,44467,1482.233,40.11402,-88.22449,225.1876,-1,-1,10,65.3494,1415908971,0.01449585,-0.02586365,-1.000397,20.35043,-29.30311,7.479248,211.4283,214.5107,25,-0.05863588,-0.06703443,-0.01605567,-0.6886757,0.01299996,0.02516588,-0.0004727652,0.001083198,0.001278887,-0.0002086102,0.000886493,-0.0002943041,172.17.160.76,10.175.81.193,5,stationary,2,2014-11-13 14:00:32.598,15,2014-11-13 13:57:29.604,0
2014-11-13 14:02:55.799,44468,1482.267,40.11402,-88.22449,225.1876,-1,-1,10,65.3494,1415908971,0.01535034,-0.02481079,-0.9992676,20.04033,-28.99301,7.915039,211.4327,214.5151,25,-0.05863189,-0.06597982,-0.01711161,-0.6886778,0.0130152,0.02518319,-0.0004712888,-0.001050047,0.0002061134,0.001485139,-0.00068312,-0.000798478,172.17.160.76,10.175.81.193,5,stationary,2,2014-11-13 14:00:32.598,15,2014-11-13 13:57:29.604,0
2014-11-13 14:02:55.832,44469,1482.3,40.11402,-88.22449,225.1876,-1,-1,10,65.3494,1415908971,0.0118103,-0.0249176,-0.9959106,20.31597,-29.40646,8.250244,211.4336,214.5159,25,-0.05970195,-0.06703389,-0.01605167,-0.6886812,0.01304825,0.02518515,0.0005974496,-0.001058903,-0.000859552,0.002306598,0.0003717002,0.0003301924,172.17.160.76,10.175.81.193,5,stationary,2,2014-11-13 14:00:32.598,15,2014-11-13 13:57:29.604,0
2014-11-13 14:02:55.866,44470,1482.333,40.11402,-88.22449,225.1876,-1,-1,10,65.3494,1415908971,0.01316833,-0.02529907,-0.9998627,20.45378,-29.6132,8.384277,211.435,214.5174,25,-0.05757381,-0.06808957,-0.01500372,-0.6886596,0.01302691,0.0251693,-0.0004702967,0.001077512,0.0002153157,0.001519211,0.0006762859,0.0009717388,172.17.160.76,10.175.81.193,5,stationary,2,2014-11-13 14:00:32.598,15,2014-11-13 13:57:29.604,0
2014-11-13 14:02:55.899,44471,1482.367,40.11402,-88.22449,225.1876,-1,-1,10,65.3494,1415908971,0.0151062,-0.02497864,-0.9971313,20.38488,-29.68211,8.183105,211.4343,214.5167,25,-0.05756742,-0.06810555,-0.01712679,-0.6886355,0.01303572,0.02515687,-0.0004769631,-0.003164943,0.001254411,0.0001371095,-0.0001448513,-0.0002640253,172.17.160.76,10.175.81.193,5,stationary,2,2014-11-13 14:00:32.598,15,2014-11-13 13:57:29.604,0
2014-11-13 14:02:55.932,44472,1482.4,40.11402,-88.22449,225.1876,-1,-1,10,65.3494,1415908971,0.01255798,-0.02554321,-0.9957581,20.48824,-29.78548,7.747437,211.4358,214.5181,25,-0.05863509,-0.06597183,-0.01605007,-0.6886553,0.0130859,0.025164,0.0005941693,1.401275e-05,0.0002055046,0.001307659,-0.0004734193,-0.001989103,172.17.160.76,10.175.81.193,5,stationary,2,2014-11-13 14:00:32.598,15,2014-11-13 13:57:29.604,0
2014-11-13 14:02:55.965,44473,1482.433,40.11402,-88.22449,225.1876,-1,-1,10,65.3494,1415908971,0.01551819,-0.02438354,-1.000656,20.5916,-29.81993,7.512817,211.4367,214.5191,25,-0.05649896,-0.06491828,-0.01711401,-0.6886543,0.0130729,0.02517418,0.0005946321,0.00107618,0.0002110018,0.0009849566,0.0005438335,0.001398262,172.17.160.76,10.175.81.193,5,stationary,2,2014-11-13 14:00:32.598,15,2014-11-13 13:57:29.604,0
2014-11-13 14:02:55.999,44474,1482.467,40.11402,-88.22449,225.1876,-1,-1,10,65.3494,1415908971,0.01289368,-0.02528381,-0.9966125,20.31596,-29.6132,7.445801,211.4354,214.5178,25,-0.05970195,-0.06703389,-0.01605167,-0.6886656,0.01315414,0.02519317,-0.0004721407,1.716717e-05,0.0002076326,0.0009037539,-0.001390306,-0.002448496,172.17.160.76,10.175.81.193,5,stationary,2,2014-11-13 14:00:32.598,15,2014-11-13 13:57:29.604,0
2014-11-13 14:02:56.032,44475,1482.5,40.11402,-88.22449,225.1876,-1,-1,10,65.3494,1415908971,0.01235962,-0.02502441,-0.9984894,19.55793,-29.40648,7.378723,211.4193,214.5017,25,-0.05863908,-0.06702644,-0.01499413,-0.6886657,0.01320183,0.02518309,0.000593567,1.646861e-05,0.000203534,0.001435917,-0.0003170036,0.0007859929,172.17.160.76,10.175.81.193,5,stationary,2,2014-11-13 14:00:32.598,15,2014-11-13 13:57:29.604,0
2014-11-13 14:02:56.066,44476,1482.533,40.11402,-88.22449,225.1876,-1,-1,10,65.3494,1415908971,0.01365662,-0.02497864,-0.99646,19.42012,-29.47539,7.378723,211.4071,214.4895,25,-0.05863588,-0.06703443,-0.01605567,-0.6886437,0.01321581,0.0251893,-0.0004719692,0.001079285,0.0002130396,0.0003385689,-0.0001276969,0.00106031,172.17.160.76,10.175.81.193,5,stationary,2,2014-11-13 14:00:32.598,15,2014-11-13 13:57:29.604,0
2014-11-13 14:02:56.099,44477,1482.567,40.11402,-88.22449,225.1876,-1,-1,10,65.3494,1415908971,0.01383972,-0.0256958,-0.9976349,20.10923,-29.75103,7.378723,211.395,214.4774,25,-0.05756662,-0.06704295,-0.0171212,-0.6886516,0.01324574,0.02515683,0.0005943113,0.00214092,0.0002145037,-0.001217239,0.0008011511,0.001121767,172.17.160.76,10.175.81.193,5,stationary,2,2014-11-13 14:00:32.598,15,2014-11-13 13:57:29.604,0
2014-11-13 14:02:56.132,44478,1482.6,40.11402,-88.22449,225.1876,-1,-1,10,65.3494,1415908971,0.01373291,-0.02510071,-1.001617,20.66051,-29.75102,7.378723,211.3956,214.4779,25,-0.05863588,-0.06703443,-0.01605567,-0.6886491,0.01324441,0.02516894,-0.0004705746,7.774471e-06,-0.000854353,0.001332313,0.0003554895,0.0004806106,172.17.160.76,10.175.81.193,5,stationary,2,2014-11-13 14:00:32.598,15,2014-11-13 13:57:29.604,0
2014-11-13 14:02:56.166,44479,1482.633,40.11402,-88.22449,225.1876,-1,-1,10,65.3494,1415908971,0.01197815,-0.02409363,-0.9998016,20.9017,-29.57875,7.546326,211.4036,214.486,25,-0.05862869,-0.0659878,-0.01817315,-0.6886429,0.01322348,0.02514848,-0.001542799,2.71985e-05,0.001270896,-0.0008745504,0.0006707293,0.001427447,172.17.160.76,10.175.81.193,5,stationary,2,2014-11-13 14:00:32.598,15,2014-11-13 13:57:29.604,0
2014-11-13 14:02:56.199,44480,1482.667,40.11402,-88.22449,225.1876,-1,-1,10,65.3494,1415908971,0.01091003,-0.02626038,-0.9987488,20.38486,-29.40648,7.378723,211.4079,214.4902,25,-0.05863828,-0.06596383,-0.01498854,-0.6886538,0.01318656,0.02511595,-0.001539957,1.875244e-05,0.0002092808,-0.00120387,0.001019686,-0.0002039387,172.17.160.76,10.175.81.193,5,stationary,2,2014-11-13 14:00:32.598,15,2014-11-13 13:57:29.604,0
2014-11-13 14:02:56.232,44481,1482.7,40.11402,-88.22449,225.1876,-1,-1,10,65.3494,1415908971,0.01350403,-0.02531433,-1.000961,20.07477,-29.44093,7.814453,211.4085,214.4909,25,-0.05863428,-0.06490923,-0.01604448,-0.6886596,0.01318185,0.02517336,-0.0004742078,1.755448e-05,0.0002051287,-0.0003904305,-0.001196489,0.001656252,172.17.160.76,10.175.81.193,5,stationary,2,2014-11-13 14:00:32.598,15,2014-11-13 13:57:29.604,0
2014-11-13 14:02:56.266,44482,1482.733,40.11402,-88.22449,225.1876,-1,-1,10,65.3494,1415908971,0.01264954,-0.02474976,-0.9979401,19.73021,-29.57875,7.814453,211.3999,214.4823,25,-0.05757302,-0.06702697,-0.01499812,-0.6886745,0.01322086,0.02515647,-0.0004712986,9.254417e-06,-0.0008565063,-0.0004294234,2.259436e-05,-0.002143276,172.17.160.76,10.175.81.193,5,stationary,2,2014-11-13 14:00:32.598,15,2014-11-13 13:57:29.604,0
2014-11-13 14:02:56.299,44483,1482.767,40.11402,-88.22449,225.1876,-1,-1,10,65.3494,1415908971,0.0128479,-0.0256958,-1.000992,20.31596,-30.1645,8.11615,211.3882,214.4705,25,-0.05756982,-0.06703496,-0.01605966,-0.6886635,0.01314757,0.0251533,-0.001539985,0.001079808,0.0002145599,-0.0004934962,0.0004008905,0.001657208,172.17.160.76,10.175.81.193,5,stationary,2,2014-11-13 14:00:32.598,15,2014-11-13 13:57:29.604,0
2014-11-13 14:02:56.332,44484,1482.8,40.11402,-88.22449,225.1876,-1,-1,10,65.3494,1415908971,0.01202393,-0.02514648,-0.9976959,20.62605,-29.78549,7.68042,211.3852,214.4676,25,-0.05649976,-0.06598088,-0.0171196,-0.6886688,0.01310715,0.02516323,-0.001540184,-0.002113331,-0.0008656619,-0.0006819692,-0.0006267775,0.003763202,172.17.160.76,10.175.81.193,5,stationary,2,2014-11-13 14:00:32.598,15,2014-11-13 13:57:29.604,0
2014-11-13 14:02:56.366,44485,1482.833,40.11402,-88.22449,225.1876,-1,-1,10,65.3494,1415908971,0.01487732,-0.02436829,-0.9976044,20.90169,-29.64767,7.88147,211.3927,214.475,25,-0.05756423,-0.06811354,-0.01818833,-0.6886904,0.01308515,0.02517172,0.001659409,9.846277e-06,-0.0008665215,-0.001056701,2.257976e-05,0.001901704,172.17.160.76,10.175.81.193,5,stationary,2,2014-11-13 14:00:32.598,15,2014-11-13 13:57:29.604,0
2014-11-13 14:02:56.399,44486,1482.867,40.11402,-88.22449,225.1876,-1,-1,10,65.3494,1415908971,0.01312256,-0.0249176,-1.000931,20.66051,-29.33757,7.44574,211.406,214.4883,25,-0.05756902,-0.06597236,-0.01605407,-0.6887067,0.01314629,0.0251815,-0.0004771667,-0.001043708,0.0001972671,0.001735575,0.0008105566,0.001992209,172.17.160.76,10.175.81.193,5,stationary,2,2014-11-13 14:00:32.598,15,2014-11-13 13:57:29.604,0
2014-11-13 14:02:56.432,44487,1482.9,40.11402,-88.22449,225.1876,-1,-1,10,65.3494,1415908971,0.01168823,-0.02500916,-0.9963837,20.86724,-29.68212,7.378662,211.4124,214.4948,25,-0.05863509,-0.06597183,-0.01605007,-0.6887103,0.01310057,0.02518304,-0.00154438,-0.002106369,0.0001955765,2.651486e-05,0.0002627781,-0.001333646,172.17.160.76,10.175.81.193,5,stationary,2,2014-11-13 14:00:32.598,15,2014-11-13 13:57:29.604,0
2014-11-13 14:02:56.466,44488,1482.933,40.11402,-88.22449,225.1876,-1,-1,10,65.3494,1415908971,0.01303101,-0.02455139,-0.9998627,21.2807,-30.23341,6.976501,211.4234,214.5058,25,-0.05756902,-0.06597236,-0.01605407,-0.6887093,0.01306747,0.02515629,0.0005887999,1.721974e-05,0.0001986593,-0.001222147,0.0008921665,0.0008647254,172.17.160.76,10.175.81.193,5,stationary,2,2014-11-13 14:00:32.598,15,2014-11-13 13:57:29.604,0
2014-11-13 14:02:56.499,44489,1482.967,40.11402,-88.22449,225.1876,-1,-1,10,65.3494,1415908971,0.014328,-0.02488708,-1.000641,21.03951,-29.99222,7.077026,211.4359,214.5182,25,-0.05756982,-0.06703496,-0.01605966,-0.6887003,0.01300772,0.02515192,0.0005882143,1.983784e-05,0.0001968241,0.0003939742,-0.000622828,-0.0001262071,172.17.160.76,10.175.81.193,5,stationary,2,2014-11-13 14:00:32.598,15,2014-11-13 13:57:29.604,0
2014-11-13 14:02:56.532,44490,1483,40.11402,-88.22449,225.1876,-1,-1,10,65.3494,1415908971,0.01074219,-0.02490234,-0.996933,20.93615,-29.81995,7.646851,211.4491,214.5314,25,-0.05756902,-0.06597236,-0.01605407,-0.6887354,0.01299868,0.02517842,0.000586218,-0.002105842,0.0001855085,-0.000558278,9.030742e-05,0.003001295,172.17.160.76,10.175.81.193,5,stationary,2,2014-11-13 14:00:32.598,15,2014-11-13 13:57:29.604,0
2014-11-13 14:02:56.566,44491,1483.033,40.11402,-88.22449,225.1876,-1,-1,10,65.3494,1415908971,0.01490784,-0.02500916,-1.00032,20.86724,-29.75105,7.445801,211.4543,214.5367,25,-0.05863908,-0.06702644,-0.01499413,-0.6887282,0.01295026,0.02519632,0.0005882912,0.001081305,0.0002021967,0.0003446132,-0.0002580109,0.001078865,172.17.160.76,10.175.81.193,5,stationary,2,2014-11-13 14:00:32.598,15,2014-11-13 13:57:29.604,0
2014-11-13 14:02:56.599,44492,1483.067,40.11402,-88.22449,225.1876,-1,-1,10,65.3494,1415908971,0.01152039,-0.02452087,-0.999649,20.93615,-29.75105,7.110657,211.4641,214.5464,25,-0.05756902,-0.06597236,-0.01605407,-0.6887038,0.01296048,0.02521399,-0.000485889,-0.001027498,0.00231801,0.001951839,0.0002021636,-0.0007222496,172.17.160.76,10.175.81.193,5,stationary,2,2014-11-13 14:00:32.598,15,2014-11-13 13:57:29.604,0
2014-11-13 14:02:56.632,44493,1483.1,40.11402,-88.22449,225.1876,-1,-1,10,65.3494,1415908971,0.01673889,-0.02455139,-0.9966431,20.52268,-29.75105,6.574341,211.4676,214.5499,25,-0.05756822,-0.06490976,-0.01604847,-0.6886718,0.01292223,0.02520582,-0.0004823186,2.94476e-05,0.001260298,0.001425494,0.0005907274,0.001231576,172.17.160.76,10.175.81.193,5,stationary,2,2014-11-13 14:00:32.598,15,2014-11-13 13:57:29.604,0
2014-11-13 14:02:56.666,44494,1483.133,40.11402,-88.22449,225.1876,-1,-1,10,65.3494,1415908971,0.01348877,-0.02508545,-1.001175,20.04031,-30.02668,6.708435,211.4585,214.5408,25,-0.05863588,-0.06703443,-0.01605567,-0.6886667,0.01296592,0.02519445,-0.0004818562,0.001091861,0.001265788,-0.0004492337,-4.624925e-05,0.004038915,172.17.160.76,10.175.81.193,5,stationary,2,2014-11-13 14:00:32.598,15,2014-11-13 13:57:29.604,0
2014-11-13 14:02:56.699,44495,1483.167,40.11402,-88.22449,225.1876,-1,-1,10,65.3494,1415908971,0.01275635,-0.02505493,-0.9968414,20.28149,-30.26787,6.741882,211.4439,214.5263,25,-0.05757142,-0.06490177,-0.01498694,-0.6886545,0.01292517,0.02522732,-0.0004796815,2.066989e-05,0.000198569,-0.001980149,-0.001188317,-0.003545005,172.17.160.76,10.175.81.193,5,stationary,2,2014-11-13 14:00:32.598,15,2014-11-13 13:57:29.604,0
2014-11-13 14:02:56.732,44496,1483.2,40.11402,-88.22449,225.1876,-1,-1,10,65.3494,1415908971,0.01200867,-0.02534485,-1.003189,20.76387,-30.13004,7.345215,211.4365,214.5189,25,-0.05756982,-0.06703496,-0.01605966,-0.6886636,0.01285322,0.02523836,-0.0004767916,1.206325e-05,-0.0008630586,-9.242962e-05,0.0001807481,0.002757524,172.17.160.76,10.175.81.193,5,stationary,2,2014-11-13 14:00:32.598,15,2014-11-13 13:57:29.604,0
2014-11-13 14:02:56.766,44497,1483.233,40.11402,-88.22449,225.1876,-1,-1,10,65.3494,1415908971,0.01164246,-0.02552795,-0.9991913,20.86724,-29.88885,7.311646,211.4406,214.523,25,-0.05650136,-0.06384769,-0.01604688,-0.6886646,0.01282685,0.02524716,0.001656222,0.002135419,-0.0008600405,-0.0004780545,3.695815e-05,0.001201243,172.17.160.76,10.175.81.193,5,stationary,2,2014-11-13 14:00:32.598,15,2014-11-13 13:57:29.604,0
2014-11-13 14:02:56.799,44498,1483.267,40.11402,-88.22449,225.1876,-1,-1,10,65.3494,1415908971,0.01275635,-0.0254364,-0.9983673,20.86724,-30.02668,7.64679,211.4476,214.53,25,-0.05863828,-0.06596383,-0.01498854,-0.6886739,0.01280791,0.02526316,0.0005889512,1.347323e-05,-0.000868956,0.0002733109,0.000510715,0.000422884,172.17.160.76,10.175.81.193,5,stationary,2,2014-11-13 14:00:32.598,15,2014-11-13 13:57:29.604,0
2014-11-13 14:02:56.832,44499,1483.3,40.11402,-88.22449,225.1876,-1,-1,10,65.3494,1415908971,0.01034546,-0.0247345,-0.9969482,20.83278,-29.99222,7.479248,211.45,214.5324,25,-0.05863668,-0.06809703,-0.01606126,-0.6886704,0.01282929,0.02527259,0.0005887842,1.331029e-05,-0.0008690228,0.001304797,-0.0006090091,0.0002545252,172.17.160.76,10.175.81.193,5,stationary,2,2014-11-13 14:00:32.598,15,2014-11-13 13:57:29.604,0
2014-11-13 14:02:56.866,44500,1483.333,40.11402,-88.22449,225.1876,-1,-1,10,65.3494,1415908971,0.01211548,-0.02598572,-0.9974518,20.72941,-29.88885,7.44574,211.4518,214.5341,25,-0.05863189,-0.06597982,-0.01711161,-0.6886564,0.01278602,0.02521962,-0.0004859753,-0.00209607,0.00124673,0.000798718,0.0009707282,-0.002047661,172.17.160.76,10.175.81.193,5,stationary,2,2014-11-13 14:00:32.598,15,2014-11-13 13:57:29.604,0
2014-11-13 14:02:56.899,44501,1483.367,40.11402,-88.22449,225.1876,-1,-1,10,65.3494,1415908971,0.01411438,-0.02603149,-1.00061,20.41931,-29.71658,7.412292,211.4492,214.5316,25,-0.05756343,-0.06279255,-0.01709883,-0.6886477,0.01272,0.02520679,-0.001549274,-0.002104186,0.0001890794,-0.002675336,0.0009579058,0.000852674,172.17.160.76,10.175.81.193,5,stationary,2,2014-11-13 14:00:32.598,15,2014-11-13 13:57:29.604,0
2014-11-13 14:02:56.932,44502,1483.4,40.11402,-88.22449,225.1876,-1,-1,10,65.3494,1415908971,0.01428223,-0.0243988,-0.9997559,20.69495,-29.99223,7.747498,211.4514,214.5338,25,-0.05863588,-0.06703443,-0.01605567,-0.6886371,0.01276699,0.02522373,-0.000481883,2.020973e-05,0.0001961714,0.0003904928,-0.0005510353,-0.001955969,172.17.160.76,10.175.81.193,5,stationary,2,2014-11-13 14:00:32.598,15,2014-11-13 13:57:29.604,0
2014-11-13 14:02:56.966,44503,1483.433,40.11402,-88.22449,225.1876,-1,-1,10,65.3494,1415908971,0.01228333,-0.0254364,-0.9998169,20.55713,-29.92331,7.747498,211.4507,214.5331,25,-0.05650216,-0.06491029,-0.01605247,-0.6886342,0.01280669,0.02519342,-0.0004818855,-0.001039442,0.0001891555,0.001479947,0.0007919481,-0.0001551753,172.17.160.76,10.175.81.193,5,stationary,2,2014-11-13 14:00:32.598,15,2014-11-13 13:57:29.604,0
2014-11-13 14:02:56.999,44504,1483.467,40.11402,-88.22449,225.1876,-1,-1,10,65.3494,1415908971,0.01327515,-0.02478027,-0.9947205,21.0395,-30.33677,7.68042,211.4516,214.5339,25,-0.05970275,-0.0680965,-0.01605726,-0.6886222,0.01282282,0.02522737,-0.0004783327,1.474455e-05,-0.0008669195,-0.0005350626,-0.0002117079,-0.0002172728,172.17.160.76,10.175.81.193,5,stationary,2,2014-11-13 14:00:32.598,15,2014-11-13 13:57:29.604,0
2014-11-13 14:02:57.032,44505,1483.5,40.11402,-88.22449,225.1876,-1,-1,10,65.3494,1415908971,0.01345825,-0.02514648,-1.002045,21.07396,-30.37122,7.579834,211.4526,214.535,25,-0.0554313,-0.06279361,-0.01710682,-0.6886218,0.01279383,0.02520765,0.001650835,0.001083765,0.000192105,-0.001589463,0.000577293,0.00413235,172.17.160.76,10.175.81.193,5,stationary,2,2014-11-13 14:00:32.598,15,2014-11-13 13:57:29.604,0
2014-11-13 14:02:57.066,44506,1483.533,40.11402,-88.22449,225.1876,-1,-1,10,65.3494,1415908971,0.01443481,-0.02554321,-0.9957581,21.10842,-30.61241,7.546326,211.4529,214.5353,25,-0.05757302,-0.06702697,-0.01499812,-0.6886358,0.01284257,0.02522085,-0.0004793567,1.379086e-05,-0.000867166,-0.000890499,8.695303e-05,0.001354293,172.17.160.76,10.175.81.193,5,stationary,2,2014-11-13 14:00:32.598,15,2014-11-13 13:57:29.604,0
2014-11-13 14:02:57.099,44507,1483.567,40.11402,-88.22449,225.1876,-1,-1,10,65.3494,1415908971,0.01397705,-0.02449036,-0.9976196,20.55714,-29.99222,7.546326,211.4533,214.5357,25,-0.05756982,-0.06703496,-0.01605966,-0.6886024,0.01292027,0.02519385,-0.0004838814,-0.001041101,0.0001886399,0.001274859,0.0008228948,-0.001804596,172.17.160.76,10.175.81.193,5,stationary,2,2014-11-13 14:00:32.598,15,2014-11-13 13:57:29.604,0
2014-11-13 14:02:57.132,44508,1483.6,40.11402,-88.22449,225.1876,-1,-1,10,65.3494,1415908971,0.01199341,-0.02566528,-0.9980164,20.59159,-29.95776,7.311707,211.4559,214.5383,25,-0.05756822,-0.06490976,-0.01604847,-0.6886066,0.01285154,0.0251794,-0.00154965,-0.002100595,0.0001858074,-0.0006553383,0.0003506872,0.003918699,172.17.160.76,10.175.81.193,5,stationary,2,2014-11-13 14:00:32.598,15,2014-11-13 13:57:29.604,0
2014-11-13 14:02:57.166,44509,1483.633,40.11402,-88.22449,225.1876,-1,-1,10,65.3494,1415908971,0.01203918,-0.02568054,-0.9988403,20.93615,-29.81994,7.311768,211.4614,214.5437,25,-0.05863588,-0.06703443,-0.01605567,-0.6886146,0.0128421,0.02517722,0.0005847707,0.001085915,0.0001945674,-0.001286769,-6.347756e-05,0.003842582,172.17.160.76,10.175.81.193,5,stationary,2,2014-11-13 14:00:32.598,15,2014-11-13 13:57:29.604,0
2014-11-13 14:02:57.199,44510,1483.667,40.11402,-88.22449,225.1876,-1,-1,10,65.3494,1415908971,0.01330566,-0.02442932,-1.003098,21.52188,-29.71657,7.68042,211.4823,214.5647,25,-0.05756822,-0.06490976,-0.01604847,-0.688605,0.01284208,0.02519842,0.0005826874,-0.001039938,0.0001832379,0.001200434,-0.0001185756,0.002850226,172.17.160.76,10.175.81.193,5,stationary,2,2014-11-13 14:00:32.598,15,2014-11-13 13:57:29.604,0
2014-11-13 14:02:57.232,44511,1483.7,40.11402,-88.22449,225.1876,-1,-1,10,65.3494,1415908971,0.01226807,-0.02500916,-0.9973145,21.21178,-29.95776,7.713867,211.4899,214.5722,25,-0.05757062,-0.06809756,-0.01606525,-0.6886026,0.01293715,0.02519874,0.0005840232,0.001085308,0.0001943501,0.003195853,-0.0001945541,-0.001438726,172.17.160.76,10.175.81.193,5,stationary,2,2014-11-13 14:00:32.598,15,2014-11-13 13:57:29.604,0
2014-11-13 14:02:57.266,44512,1483.733,40.11402,-88.22449,225.1876,-1,-1,10,65.3494,1415908971,0.0138092,-0.02574158,-0.9975128,21.07396,-29.95776,7.378723,211.505,214.5874,25,-0.05863349,-0.06810502,-0.01712279,-0.6885949,0.01290444,0.02520667,0.001645577,2.955044e-05,0.001246169,-0.0006319173,0.0001948431,0.002284641,172.17.160.76,10.175.81.193,5,stationary,2,2014-11-13 14:00:32.598,15,2014-11-13 13:57:29.604,0
2014-11-13 14:02:57.299,44513,1483.767,40.11402,-88.22449,225.1876,-1,-1,10,65.3494,1415908971,0.01521301,-0.02494812,-0.9968262,20.45377,-30.23339,6.775391,211.5007,214.5831,25,-0.05650296,-0.06597289,-0.01605806,-0.6885874,0.01286393,0.02521532,0.0005835629,2.460102e-05,0.0001874771,0.0009192018,-0.0001322047,0.00373453,172.17.160.76,10.175.81.193,5,stationary,2,2014-11-13 14:00:32.598,15,2014-11-13 13:57:29.604,0
2014-11-13 14:02:57.332,44514,1483.8,40.11402,-88.22449,225.1876,-1,-1,10,65.3494,1415908971,0.01148987,-0.02481079,-0.9987183,20.48823,-30.13002,6.808899,211.4965,214.5789,25,-0.05863509,-0.06597183,-0.01605007,-0.6885787,0.01296724,0.02520158,-0.001552931,-0.001028874,0.0012513,0.001182139,5.24243e-05,-0.0003710721,172.17.160.76,10.175.81.193,5,stationary,2,2014-11-13 14:00:32.598,15,2014-11-13 13:57:29.604,0
2014-11-13 14:02:57.366,44515,1483.833,40.11402,-88.22449,225.1876,-1,-1,10,65.3494,1415908971,0.01478577,-0.02554321,-0.9995422,20.04031,-30.30229,6.775391,211.4745,214.5569,25,-0.05863588,-0.06703443,-0.01605567,-0.6885651,0.01293961,0.02517642,0.0005825932,2.400955e-05,0.0001872393,-0.0001482794,0.0006833983,0.000820105,172.17.160.76,10.175.81.193,5,stationary,2,2014-11-13 14:00:32.598,15,2014-11-13 13:57:29.604,0
2014-11-13 14:02:57.399,44516,1483.867,40.11402,-88.22449,225.1876,-1,-1,10,65.3494,1415908971,0.01176453,-0.0256958,-0.998642,20.24703,-30.16447,7.043579,211.4579,214.5403,25,-0.05756902,-0.06597236,-0.01605407,-0.6885545,0.01294112,0.02520615,-0.0004844553,-0.001038376,0.0001855439,-0.0005159976,-0.0007974945,0.001551758,172.17.160.76,10.175.81.193,5,stationary,2,2014-11-13 14:00:32.598,15,2014-11-13 13:57:29.604,0
2014-11-13 14:02:57.432,44517,1483.9,40.11402,-88.22449,225.1876,-1,-1,10,65.3494,1415908971,0.01261902,-0.02430725,-0.9972534,20.31595,-30.09556,7.311768,211.4466,214.5289,25,-0.05863269,-0.06704242,-0.0171172,-0.688562,0.0129152,0.02522484,-0.001546461,-0.001043156,-0.0008728738,4.398037e-05,-0.0005499271,-0.0008440078,172.17.160.76,10.175.81.193,5,stationary,2,2014-11-13 14:00:32.598,15,2014-11-13 13:57:29.604,0
2014-11-13 14:02:57.466,44518,1483.933,40.11402,-88.22449,225.1876,-1,-1,10,65.3494,1415908971,0.01118469,-0.02429199,-1.000305,20.62605,-30.19892,7.747437,211.4442,214.5266,25,-0.05650376,-0.0670355,-0.01606365,-0.6885663,0.01291142,0.02518376,0.0005859883,1.791067e-05,-0.0008753683,-0.0005015676,0.0001261699,4.208593e-05,172.17.160.76,10.175.81.193,5,stationary,2,2014-11-13 14:00:32.598,15,2014-11-13 13:57:29.604,0
2014-11-13 14:02:57.499,44519,1483.967,40.11402,-88.22449,225.1876,-1,-1,10,65.3494,1415908971,0.01239014,-0.02520752,-0.9980316,20.69496,-29.9922,7.747498,211.444,214.5264,25,-0.05756822,-0.06490976,-0.01604847,-0.6885712,0.01290312,0.02514189,-0.001551467,-0.002098655,0.0001828723,0.0006358649,0.0001300834,-0.001619961,172.17.160.76,10.175.81.193,5,stationary,2,2014-11-13 14:00:32.598,15,2014-11-13 13:57:29.604,0
2014-11-13 14:02:57.532,44520,1484,40.11402,-88.22449,225.1876,-1,-1,10,65.3494,1415908971,0.01293945,-0.0256958,-0.9999237,20.52268,-29.61319,7.579895,211.4443,214.5267,25,-0.05970115,-0.06597129,-0.01604608,-0.6885473,0.01291085,0.02513108,-0.0004834567,0.001088069,0.0001955264,4.829885e-05,0.0005617883,0.00127938,172.17.160.76,10.175.81.193,5,stationary,2,2014-11-13 14:00:32.598,15,2014-11-13 13:57:29.604,0
2014-11-13 14:02:57.566,44521,1484.033,40.11402,-88.22449,225.1876,-1,-1,10,65.3494,1415908971,0.01463318,-0.02500916,-0.9975281,20.52268,-29.54428,7.311768,211.4469,214.5292,25,-0.05863509,-0.06597183,-0.01605007,-0.6885334,0.01295782,0.02513155,-0.00155051,2.585102e-05,0.000193844,0.0007490296,8.923424e-05,-0.001269457,172.17.160.76,10.175.81.193,5,stationary,2,2014-11-13 14:00:32.598,15,2014-11-13 13:57:29.604,0
2014-11-13 14:02:57.599,44522,1484.067,40.11402,-88.22449,225.1876,-1,-1,10,65.3494,1415908971,0.01080322,-0.02532959,-0.998764,19.9714,-29.6132,7.848022,211.4424,214.5248,25,-0.05650695,-0.0670275,-0.01500212,-0.6885392,0.0130825,0.02510636,-0.0004840275,2.862871e-05,0.0001891277,0.002135011,0.0003997444,-0.001743469,172.17.160.76,10.175.81.193,5,stationary,2,2014-11-13 14:00:32.598,15,2014-11-13 13:57:29.604,0
2014-11-13 14:02:57.633,44523,1484.1,40.11402,-88.22449,225.1876,-1,-1,10,65.3494,1415908971,0.01275635,-0.02511597,-0.9988708,20.24704,-29.75102,7.781006,211.4391,214.5215,25,-0.05757222,-0.06596437,-0.01499253,-0.6885297,0.01304868,0.02512028,0.001643882,-0.001027447,0.001237019,-0.002240967,-0.0002119541,0.0008353584,172.17.160.76,10.175.81.193,5,stationary,2,2014-11-13 14:00:32.598,15,2014-11-13 13:57:29.604,0
2014-11-13 14:02:57.666,44524,1484.133,40.11402,-88.22449,225.1876,-1,-1,10,65.3494,1415908971,0.01173401,-0.02470398,-0.9992065,19.79912,-29.85439,7.546387,211.424,214.5064,25,-0.05757222,-0.06596437,-0.01499253,-0.6885235,0.0129279,0.02513147,-0.001550055,0.001090269,0.0001985023,-7.555251e-05,0.0004553665,0.001477515,172.17.160.76,10.175.81.193,5,stationary,2,2014-11-13 14:00:32.598,15,2014-11-13 13:57:29.604,0
2014-11-13 14:02:57.699,44525,1484.167,40.11402,-88.22449,225.1876,-1,-1,10,65.3494,1415908971,0.01496887,-0.02462769,-0.9972076,20.3504,-29.85439,7.211243,211.4116,214.494,25,-0.05756982,-0.06703496,-0.01605966,-0.6885179,0.01292239,0.02513636,-0.000485252,2.665354e-05,0.0001888184,0.0003572016,0.0007654255,-0.0009792021,172.17.160.76,10.175.81.193,5,stationary,2,2014-11-13 14:00:32.598,15,2014-11-13 13:57:29.604,0
2014-11-13 14:02:57.732,44526,1484.2,40.11402,-88.22449,225.1876,-1,-1,10,65.3494,1415908971,0.01329041,-0.02539062,-1.002151,20.28149,-29.78548,7.27832,211.4066,214.4889,25,-0.05756902,-0.06597236,-0.01605407,-0.6885388,0.01301446,0.02508592,-0.0004850398,0.001089214,0.0001942838,0.001241709,0.000486125,-0.0007349889,172.17.160.76,10.175.81.193,5,stationary,2,2014-11-13 14:00:32.598,15,2014-11-13 13:57:29.604,0
2014-11-13 14:02:57.766,44527,1484.233,40.11402,-88.22449,225.1876,-1,-1,10,65.3494,1415908971,0.01196289,-0.02438354,-1.000473,20.6605,-30.09557,7.177734,211.4062,214.4886,25,-0.05863509,-0.06597183,-0.01605007,-0.6885491,0.013004,0.02509991,0.0005818486,0.001091539,0.0001898088,-0.00193692,1.182209e-05,-9.433458e-05,172.17.160.76,10.175.81.193,5,stationary,2,2014-11-13 14:00:32.598,15,2014-11-13 13:57:29.604,0
2014-11-13 14:02:57.799,44528,1484.267,40.11402,-88.22449,225.1876,-1,-1,10,65.3494,1415908971,0.014328,-0.02484131,-0.9992981,20.79833,-30.64686,6.976685,211.4043,214.4867,25,-0.05650456,-0.0680981,-0.01606925,-0.6885368,0.01303869,0.02510625,-0.000482289,2.103667e-05,-0.0008734578,0.00175156,-0.0005616698,-0.001178319,172.17.160.76,10.175.81.193,5,stationary,2,2014-11-13 14:00:32.598,15,2014-11-13 13:57:29.604,0
2014-11-13 14:02:57.832,44529,1484.3,40.11402,-88.22449,225.1876,-1,-1,10,65.3494,1415908971,0.0141449,-0.02526855,-1.000824,20.69496,-30.54349,6.943176,211.4003,214.4826,25,-0.05863029,-0.06385461,-0.01710042,-0.6885451,0.01307057,0.02512513,0.001644823,-0.0020973,0.0001688329,0.001261926,0.0002811757,0.0003008931,172.17.160.76,10.175.81.193,5,stationary,2,2014-11-13 14:00:32.598,15,2014-11-13 13:57:29.604,0
2014-11-13 14:02:57.866,44530,1484.333,40.11402,-88.22449,225.1876,-1,-1,10,65.3494,1415908971,0.01107788,-0.02536011,-0.9974365,20.93615,-30.23339,7.244873,211.4052,214.4875,25,-0.05863509,-0.06597183,-0.01605007,-0.6885393,0.01319013,0.02511118,-0.000489424,3.676078e-05,0.001249388,0.0009745694,7.829371e-06,-0.002446908,172.17.160.76,10.175.81.193,5,stationary,2,2014-11-13 14:00:32.598,15,2014-11-13 13:57:29.604,0
2014-11-13 14:02:57.899,44531,1484.367,40.11402,-88.22449,225.1876,-1,-1,10,65.3494,1415908971,0.01191711,-0.02574158,-1.000092,20.79833,-30.09557,7.513,211.4054,214.4877,25,-0.05649896,-0.06491828,-0.01711401,-0.6885322,0.01315257,0.02512012,-0.0004880856,0.002161328,0.001260483,-0.0002696278,-0.0007156518,0.000666155,172.17.160.76,10.175.81.193,5,stationary,2,2014-11-13 14:00:32.598,15,2014-11-13 13:57:29.604,0
2014-11-13 14:02:57.932,44532,1484.4,40.11402,-88.22449,225.1876,-1,-1,10,65.3494,1415908971,0.01268005,-0.02462769,-0.9985504,20.76387,-30.13004,7.613525,211.4061,214.4885,25,-0.05756822,-0.06490976,-0.01604847,-0.6885469,0.01310256,0.02510631,-0.0004874515,-0.002094932,0.0001762721,-0.001531892,0.0003996932,-0.002170977,172.17.160.76,10.175.81.193,5,stationary,2,2014-11-13 14:00:32.598,15,2014-11-13 13:57:29.604,0
2014-11-13 14:02:57.966,44533,1484.433,40.11402,-88.22449,225.1876,-1,-1,10,65.3494,1415908971,0.01399231,-0.02487183,-0.9990387,20.83278,-29.92329,7.546509,211.4091,214.4914,25,-0.05970115,-0.06597129,-0.01604608,-0.6885753,0.01313926,0.02511497,0.001648951,2.070966e-05,-0.0008822163,0.001162744,-0.001041238,-0.0004169146,172.17.160.76,10.175.81.193,5,stationary,2,2014-11-13 14:00:32.598,15,2014-11-13 13:57:29.604,0
2014-11-13 14:02:57.999,44534,1484.467,40.11402,-88.22449,225.1876,-1,-1,10,65.3494,1415908971,0.01322937,-0.02583313,-1.002487,20.76387,-29.85439,7.613525,211.4153,214.4976,25,-0.05543609,-0.06491082,-0.01605646,-0.6885797,0.01311147,0.02506687,0.0005807788,0.002153952,0.0001944012,-0.001800212,0.0004823415,0.001781922,172.17.160.76,10.175.81.193,5,stationary,2,2014-11-13 14:00:32.598,15,2014-11-13 13:57:29.604,0
2014-11-13 14:02:58.032,44535,1484.5,40.11402,-88.22449,225.1876,-1,-1,10,65.3494,1415908971,0.01467896,-0.02471924,-0.999588,20.6605,-29.68211,7.311829,211.4222,214.5046,25,-0.05863428,-0.06490923,-0.01604448,-0.6885739,0.01309343,0.02509431,-0.001554019,-0.001033275,0.0001855191,0.0001862163,-0.00010058,-0.001163476,172.17.160.76,10.175.81.193,5,stationary,2,2014-11-13 14:00:32.598,15,2014-11-13 13:57:29.604,0
2014-11-13 14:02:58.066,44536,1484.533,40.11402,-88.22449,225.1876,-1,-1,10,65.3494,1415908971,0.01318359,-0.02522278,-0.9965515,20.59159,-29.6132,7.378906,211.4253,214.5077,25,-0.05649656,-0.06598887,-0.01818113,-0.6885838,0.01308024,0.02512551,0.000582646,0.001082358,-0.0008729141,0.001603214,0.0004036241,1.084023e-05,172.17.160.76,10.175.81.193,5,stationary,2,2014-11-13 14:00:32.598,15,2014-11-13 13:57:29.604,0
2014-11-13 14:02:58.099,44537,1484.567,40.11402,-88.22449,225.1876,-1,-1,10,65.3494,1415908971,0.01341248,-0.02540588,-0.9998322,20.14367,-29.71657,7.144287,211.422,214.5044,25,-0.05863908,-0.06702644,-0.01499413,-0.6886105,0.01315068,0.02511435,0.0005791881,2.992328e-05,0.0001826768,0.001120811,0.0006060918,0.001551335,172.17.160.76,10.175.81.193,5,stationary,2,2014-11-13 14:00:32.598,15,2014-11-13 13:57:29.604,0
2014-11-13 14:02:58.132,44538,1484.6,40.11402,-88.22449,225.1876,-1,-1,10,65.3494,1415908971,0.01246643,-0.02476501,-0.9992065,20.21257,-29.78548,7.211365,211.4182,214.5005,25,-0.05756982,-0.06703496,-0.01605966,-0.6886017,0.01317295,0.02511635,-0.0004911575,-0.001024431,0.001242533,0.0009154494,-0.0005058014,-0.0003105808,172.17.160.76,10.175.81.193,5,stationary,2,2014-11-13 14:00:32.598,15,2014-11-13 13:57:29.604,0
2014-11-13 14:02:58.166,44539,1484.633,40.11402,-88.22449,225.1876,-1,-1,10,65.3494,1415908971,0.01199341,-0.02503967,-1.000092,20.35039,-30.6124,7.211365,211.4008,214.4831,25,-0.05756982,-0.06703496,-0.01605966,-0.6885876,0.01309946,0.02513694,-0.0004867635,0.001091941,0.00019206,0.0003022717,-0.0004852132,-0.0007984143,172.17.160.76,10.175.81.193,5,stationary,2,2014-11-13 14:00:32.598,15,2014-11-13 13:57:29.604,0
2014-11-13 14:02:58.199,44540,1484.667,40.11402,-88.22449,225.1876,-1,-1,10,65.3494,1415908971,0.01319885,-0.02485657,-0.9992828,20.59158,-30.71577,7.31189,211.3855,214.4679,25,-0.05649976,-0.06598088,-0.0171196,-0.6885816,0.01306451,0.02513965,-0.0004887045,-0.001033755,0.0001807799,0.0001541038,0.001012857,-0.0001266387,172.17.160.76,10.175.81.193,5,stationary,2,2014-11-13 14:00:32.598,15,2014-11-13 13:57:29.604,0
2014-11-13 14:02:58.232,44541,1484.7,40.11402,-88.22449,225.1876,-1,-1,10,65.3494,1415908971,0.01321411,-0.02542114,-0.9963379,20.55712,-30.5435,7.546509,211.3797,214.4621,25,-0.05757302,-0.06702697,-0.01499812,-0.6885909,0.01306593,0.02511917,-0.0004849064,-0.001040337,-0.0008812144,-0.0009154439,0.0006261746,-0.001484175,172.17.160.76,10.175.81.193,5,stationary,2,2014-11-13 14:00:32.598,15,2014-11-13 13:57:29.604,0
2014-11-13 14:02:58.266,44542,1484.733,40.11402,-88.22449,225.1876,-1,-1,10,65.3494,1415908971,0.01126099,-0.02464294,-0.999527,20.24703,-29.88885,7.513062,211.3701,214.4525,25,-0.05863269,-0.06704242,-0.0171172,-0.688572,0.01305625,0.02509764,-0.0004869225,0.001092291,0.0001913959,-0.0005090387,-6.6735e-05,0.002849988,172.17.160.76,10.175.81.193,5,stationary,2,2014-11-13 14:00:32.598,15,2014-11-13 13:57:29.604,0
2014-11-13 14:02:58.299,44543,1484.767,40.11402,-88.22449,225.1876,-1,-1,10,65.3494,1415908971,0.01533508,-0.0242157,-0.9984894,20.28149,-29.64766,7.54657,211.3669,214.4492,25,-0.05863588,-0.06703443,-0.01605567,-0.6885448,0.01302811,0.02508327,-0.0004913165,3.720124e-05,0.001247244,0.0001752056,0.0001935562,0.001019661,172.17.160.76,10.175.81.193,5,stationary,2,2014-11-13 14:00:32.598,15,2014-11-13 13:57:29.604,0
2014-11-13 14:02:58.332,44544,1484.8,40.11402,-88.22449,225.1876,-1,-1,10,65.3494,1415908971,0.01307678,-0.02471924,-0.9983978,20.24703,-30.09559,7.513,211.3542,214.4365,25,-0.05863189,-0.06597982,-0.01711161,-0.6885249,0.01309367,0.02507583,-0.000490912,0.001099698,0.001252731,0.0008420991,-7.328314e-05,-0.0007968045,172.17.160.76,10.175.81.193,5,stationary,2,2014-11-13 14:00:32.598,15,2014-11-13 13:57:29.604,0
2014-11-13 14:02:58.366,44545,1484.833,40.11402,-88.22449,225.1876,-1,-1,10,65.3494,1415908971,0.01281738,-0.02636719,-1.000534,20.00585,-30.19896,7.881653,211.3443,214.4266,25,-0.05969955,-0.06384609,-0.01603489,-0.6885242,0.0130976,0.02504821,-0.0004889516,2.866902e-05,0.0001855054,-1.633601e-05,0.0003263487,0.001202737,172.17.160.76,10.175.81.193,5,stationary,2,2014-11-13 14:00:32.598,15,2014-11-13 13:57:29.604,0
2014-11-13 14:02:58.399,44546,1484.867,40.11402,-88.22449,225.1876,-1,-1,10,65.3494,1415908971,0.01344299,-0.0246582,-0.9971008,20.24703,-29.88886,7.781128,211.3358,214.4182,25,-0.05863588,-0.06703443,-0.01605567,-0.6885073,0.01310151,0.02507184,-0.0004912186,3.760931e-05,0.001246656,0.0007121873,-0.0005960669,7.29437e-05,172.17.160.76,10.175.81.193,5,stationary,2,2014-11-13 14:00:32.598,15,2014-11-13 13:57:29.604,0
2014-11-13 14:02:58.432,44547,1484.9,40.11402,-88.22449,225.1876,-1,-1,10,65.3494,1415908971,0.01199341,-0.02554321,-1.001373,20.83278,-29.64767,7.814697,211.3429,214.4253,25,-0.05756582,-0.06598035,-0.0171156,-0.688491,0.01309865,0.02506233,-0.0004875759,0.00109183,0.0001906146,-0.0003072977,5.054913e-05,0.00246885,172.17.160.76,10.175.81.193,5,stationary,2,2014-11-13 14:00:32.598,15,2014-11-13 13:57:29.604,0
2014-11-13 14:02:58.466,44548,1484.933,40.11402,-88.22449,225.1876,-1,-1,10,65.3494,1415908971,0.01296997,-0.02458191,-1.000443,20.9706,-29.99222,7.077271,211.356,214.4383,25,-0.05863588,-0.06703443,-0.01605567,-0.6885019,0.0131526,0.02506774,-0.001547523,0.001076117,-0.001928562,0.003102518,-0.000157663,7.237603e-05,172.17.160.76,10.175.81.193,5,stationary,2,2014-11-13 14:00:32.598,15,2014-11-13 13:57:29.604,0
2014-11-13 14:02:58.499,44549,1484.967,40.11402,-88.22449,225.1876,-1,-1,10,65.3494,1415908971,0.01130676,-0.02449036,-0.9976349,20.69497,-30.47459,6.809082,211.3516,214.434,25,-0.05756902,-0.06597236,-0.01605407,-0.6885097,0.013146,0.02502825,-0.0004884412,0.001090944,0.0001903857,0.0005456262,0.0004742504,-0.003161412,172.17.160.76,10.175.81.193,5,stationary,2,2014-11-13 14:00:32.598,15,2014-11-13 13:57:29.604,0
2014-11-13 14:02:58.533,44550,1485,40.11402,-88.22449,225.1876,-1,-1,10,65.3494,1415908971,0.01272583,-0.02485657,-1.000671,20.24705,-30.71577,7.378906,211.3404,214.4228,25,-0.05756503,-0.06491775,-0.01711001,-0.6885069,0.01308918,0.02500305,0.002708409,2.610566e-05,0.0001726988,-0.0009844915,0.001196733,0.002867186,172.17.160.76,10.175.81.193,5,stationary,2,2014-11-13 14:00:32.598,15,2014-11-13 13:57:29.604,0
2014-11-13 14:02:58.566,44551,1485.033,40.11402,-88.22449,225.1876,-1,-1,10,65.3494,1415908971,0.01477051,-0.02497864,-0.9990692,19.79913,-30.13004,7.412476,211.3134,214.3958,25,-0.05756982,-0.06703496,-0.01605966,-0.6885219,0.01305382,0.02498993,-0.001556564,-0.002096232,0.0001772069,-0.0003235396,8.695331e-06,0.001082697,172.17.160.76,10.175.81.193,5,stationary,2,2014-11-13 14:00:32.598,15,2014-11-13 13:57:29.604,0
2014-11-13 14:02:58.599,44552,1485.067,40.11402,-88.22449,225.1876,-1,-1,10,65.3494,1415908971,0.0141449,-0.02494812,-0.9987335,19.9714,-29.75103,7.446045,211.2985,214.3809,25,-0.05863269,-0.06704242,-0.0171172,-0.6885301,0.01303229,0.0249976,0.0005774209,0.001089845,0.0001858692,-0.0007445287,0.000214727,-0.0008093038,172.17.160.76,10.175.81.193,5,stationary,2,2014-11-13 14:00:32.598,15,2014-11-13 13:57:29.604,0
2014-11-13 14:02:58.632,44553,1485.1,40.11402,-88.22449,225.1876,-1,-1,10,65.3494,1415908971,0.01190186,-0.02548218,-1.003036,19.93694,-29.64766,6.876221,211.2936,214.376,25,-0.05650376,-0.0627771,-0.01497975,-0.6885524,0.01306646,0.02499847,0.0005811459,0.002144319,-0.0008701783,-0.0001225569,-0.0006846781,0.001845258,172.17.160.76,10.175.81.193,5,stationary,2,2014-11-13 14:00:32.598,15,2014-11-13 13:57:29.604,0
2014-11-13 14:02:58.666,44554,1485.133,40.11402,-88.22449,225.1876,-1,-1,10,65.3494,1415908971,0.01316833,-0.02455139,-0.9975891,20.52268,-29.88885,7.043823,211.2951,214.3774,25,-0.05757062,-0.06809756,-0.01606525,-0.6885426,0.01308251,0.02501864,0.0005769055,0.001089266,0.0001857058,-0.0003369561,0.0002052394,0.000623841,172.17.160.76,10.175.81.193,5,stationary,2,2014-11-13 14:00:32.598,15,2014-11-13 13:57:29.604,0
2014-11-13 14:02:58.699,44555,1485.167,40.11402,-88.22449,225.1876,-1,-1,10,65.3494,1415908971,0.01251221,-0.02494812,-1.001343,20.38486,-29.88884,7.110901,211.2945,214.3769,25,-0.05863269,-0.06704242,-0.0171172,-0.6885598,0.01306626,0.02498925,0.0005778139,-0.00104466,-0.0008871948,-0.001098923,-2.250964e-05,0.000487459,172.17.160.76,10.175.81.193,5,stationary,2,2014-11-13 14:00:32.598,15,2014-11-13 13:57:29.604,0
2014-11-13 14:02:58.732,44556,1485.2,40.11402,-88.22449,225.1876,-1,-1,10,65.3494,1415908971,0.01072693,-0.02436829,-0.9958801,20.62605,-29.85439,7.144409,211.2973,214.3797,25,-0.05649816,-0.06385568,-0.01710841,-0.6885809,0.01305428,0.02496296,-0.0004907498,-0.001035376,0.000178219,0.001384973,0.0005920778,0.002181998,172.17.160.76,10.175.81.193,5,stationary,2,2014-11-13 14:00:32.598,15,2014-11-13 13:57:29.604,0
2014-11-13 14:02:58.766,44557,1485.233,40.11402,-88.22449,225.1876,-1,-1,10,65.3494,1415908971,0.01405334,-0.02662659,-1.001114,20.62604,-29.64764,7.546631,211.3069,214.3892,25,-0.05756982,-0.06703496,-0.01605966,-0.6885715,0.01302907,0.02497186,0.001646648,0.002142939,-0.0008745894,-0.002297709,0.0006009814,0.003723242,172.17.160.76,10.175.81.193,5,stationary,2,2014-11-13 14:00:32.598,15,2014-11-13 13:57:29.604,0
2014-11-13 14:02:58.798,44558,1485.267,40.11402,-88.22449,225.1876,-1,-1,10,65.3494,1415908971,0.01382446,-0.02462769,-1.002472,20.83277,-29.85437,7.546692,211.321,214.4033,25,-0.05756742,-0.06384715,-0.01604288,-0.6885806,0.01302705,0.02499102,0.000575411,2.579297e-05,0.000179625,-0.0001289407,0.0004065136,0.002013805,172.17.160.76,10.175.81.193,5,stationary,2,2014-11-13 14:00:32.598,15,2014-11-13 13:57:29.604,0
2014-11-13 14:02:58.833,44559,1485.3,40.11402,-88.22449,225.1876,-1,-1,10,65.3494,1415908971,0.01243591,-0.02432251,-0.9979706,20.86723,-29.95773,7.647278,211.3257,214.4081,25,-0.05969875,-0.06704188,-0.01711321,-0.6885777,0.01306649,0.0250058,0.0005768244,0.002150911,0.0001907586,0.0009150133,-9.751402e-05,-0.0002911559,172.17.160.76,10.175.81.193,5,stationary,2,2014-11-13 14:00:32.598,15,2014-11-13 13:57:29.604,0
2014-11-13 14:02:58.866,44560,1485.333,40.11402,-88.22449,225.1876,-1,-1,10,65.3494,1415908971,0.01252747,-0.02490234,-1.000473,20.90168,-30.33675,7.077454,211.3296,214.4119,25,-0.05863029,-0.06385461,-0.01710042,-0.6885909,0.01309234,0.02496613,-0.0004907205,0.001088429,0.0001889907,0.001743652,-0.0001371698,0.001128564,172.17.160.76,10.175.81.193,5,stationary,2,2014-11-13 14:00:32.598,15,2014-11-13 13:57:29.604,0
2014-11-13 14:02:58.899,44561,1485.367,40.11402,-88.22449,225.1876,-1,-1,10,65.3494,1415908971,0.01229858,-0.02453613,-0.9971161,20.79832,-30.64684,7.37915,211.3268,214.4091,25,-0.05863109,-0.06491721,-0.01710602,-0.6886197,0.01305119,0.02499859,-0.000488373,-0.001044477,-0.0008837582,-0.0004582391,-0.0004556688,-0.002228642,172.17.160.76,10.175.81.193,5,stationary,2,2014-11-13 14:00:32.598,15,2014-11-13 13:57:29.604,0
2014-11-13 14:02:58.933,44562,1485.4,40.11402,-88.22449,225.1876,-1,-1,10,65.3494,1415908971,0.01387024,-0.02429199,-0.9964447,20.6605,-30.50903,7.245056,211.3235,214.4058,25,-0.05863668,-0.06809703,-0.01606126,-0.6886314,0.01305069,0.02500727,0.0005766721,0.002150414,0.0001904994,-0.0007476535,0.0004685267,0.002486113,172.17.160.76,10.175.81.193,5,stationary,2,2014-11-13 14:00:32.598,15,2014-11-13 13:57:29.604,0
2014-11-13 14:02:58.966,44563,1485.433,40.11402,-88.22449,225.1876,-1,-1,10,65.3494,1415908971,0.01377869,-0.02571106,-1.001755,20.45377,-30.50903,7.647278,211.3157,214.3981,25,-0.05862949,-0.0670504,-0.01817874,-0.6886358,0.01310713,0.02498539,0.0005728635,0.002158025,0.001251883,0.0003708515,0.0001872538,0.0005022797,172.17.160.76,10.175.81.193,5,stationary,2,2014-11-13 14:00:32.598,15,2014-11-13 13:57:29.604,0
2014-11-13 14:02:58.998,44564,1485.467,40.11402,-88.22449,225.1876,-1,-1,10,65.3494,1415908971,0.01173401,-0.02545166,-0.9992371,20.41931,-30.6813,7.278625,211.3077,214.39,25,-0.05970354,-0.0649007,-0.01497895,-0.688639,0.01308626,0.0249876,0.0005732506,-0.001038298,0.0001734408,-0.001408823,0.0001894725,0.002089411,172.17.160.76,10.175.81.193,5,stationary,2,2014-11-13 14:00:32.598,15,2014-11-13 13:57:29.604,0
2014-11-13 14:02:59.032,44565,1485.5,40.11402,-88.22449,225.1876,-1,-1,10,65.3494,1415908971,0.01158142,-0.02496338,-0.9997101,20.14367,-30.40566,7.211609,211.2921,214.3745,25,-0.05756503,-0.06491775,-0.01711001,-0.6886304,0.0131204,0.02500349,-0.001560605,0.001095782,0.001254085,0.002432785,-0.0008169833,-0.00160406,172.17.160.76,10.175.81.193,5,stationary,2,2014-11-13 14:00:32.598,15,2014-11-13 13:57:29.604,0
2014-11-13 14:02:59.066,44566,1485.533,40.11402,-88.22449,225.1876,-1,-1,10,65.3494,1415908971,0.01391602,-0.02555847,-0.9993744,19.79912,-30.19893,6.876404,211.2652,214.3475,25,-0.05757062,-0.06383917,-0.01498135,-0.6886342,0.01312003,0.02500646,0.0005746224,2.447933e-05,0.000178788,0.0003884759,0.0003761641,0.0008372773,172.17.160.76,10.175.81.193,5,stationary,2,2014-11-13 14:00:32.598,15,2014-11-13 13:57:29.604,0
2014-11-13 14:02:59.099,44567,1485.567,40.11402,-88.22449,225.1876,-1,-1,10,65.3494,1415908971,0.01295471,-0.02593994,-0.9974823,19.69575,-29.95775,6.909912,211.2407,214.3231,25,-0.05969795,-0.06597929,-0.01710761,-0.6886234,0.01313267,0.02503667,0.0005751654,0.001086707,0.0001843019,-0.001134773,-0.0002345046,-0.001269357,172.17.160.76,10.175.81.193,5,stationary,2,2014-11-13 14:00:32.598,15,2014-11-13 13:57:29.604,0
2014-11-13 14:02:59.133,44568,1485.6,40.11402,-88.22449,225.1876,-1,-1,10,65.3494,1415908971,0.01402283,-0.02552795,-1.002335,19.83358,-29.68211,6.97699,211.2347,214.317,25,-0.05970275,-0.0680965,-0.01605726,-0.6886202,0.01309116,0.02504355,0.001639991,2.278221e-05,0.0001745899,-0.001932511,0.0001080709,-0.00058234,172.17.160.76,10.175.81.193,5,stationary,2,2014-11-13 14:00:32.598,15,2014-11-13 13:57:29.604,0
2014-11-13 14:02:59.166,44569,1485.633,40.11402,-88.22449,225.1876,-1,-1,10,65.3494,1415908971,0.01460266,-0.02438354,-1.001892,19.79911,-29.85439,7.21167,211.2237,214.3061,25,-0.05863748,-0.06490123,-0.01498294,-0.6886358,0.01305504,0.02505537,0.0005728052,-0.001039757,0.0001728985,-0.0006909548,-1.744034e-05,-0.001223033,172.17.160.76,10.175.81.193,5,stationary,2,2014-11-13 14:00:32.598,15,2014-11-13 13:57:29.604,0
2014-11-13 14:02:59.199,44570,1485.667,40.11402,-88.22449,225.1876,-1,-1,10,65.3494,1415908971,0.0125885,-0.02459717,-0.9972839,20.14367,-29.92329,7.546814,211.2173,214.2997,25,-0.05863588,-0.06703443,-0.01605567,-0.6886292,0.01308914,0.02503255,-0.0004883121,1.585444e-05,-0.0008793057,0.001350145,0.0001123326,-0.001222907,172.17.160.76,10.175.81.193,5,stationary,2,2014-11-13 14:00:32.598,15,2014-11-13 13:57:29.604,0
2014-11-13 14:02:59.233,44571,1485.7,40.11402,-88.22449,225.1876,-1,-1,10,65.3494,1415908971,0.01283264,-0.02500916,-0.9992676,20.45376,-30.02666,7.446228,211.217,214.2993,25,-0.05863509,-0.06597183,-0.01605007,-0.6886253,0.01308043,0.02500906,-0.0004918615,2.349292e-05,0.0001821491,-0.0005637603,0.0009128262,0.001127648,172.17.160.76,10.175.81.193,5,stationary,2,2014-11-13 14:00:32.598,15,2014-11-13 13:57:29.604,0
2014-11-13 14:02:59.266,44572,1485.733,40.11402,-88.22449,225.1876,-1,-1,10,65.3494,1415908971,0.01057434,-0.02424622,-0.9983673,21.10841,-29.50982,7.211548,211.2324,214.3148,25,-0.05863748,-0.06915963,-0.01606685,-0.6886018,0.01309311,0.025032,-0.0004914022,0.001085523,0.0001876136,0.0007510897,-0.0005901238,-0.0009330284,172.17.160.76,10.175.81.193,5,stationary,2,2014-11-13 14:00:32.598,15,2014-11-13 13:57:29.604,0
2014-11-13 14:02:59.299,44573,1485.767,40.11402,-88.22449,225.1876,-1,-1,10,65.3494,1415908971,0.01223755,-0.02426147,-0.9996643,21.10841,-29.372,6.74231,211.2596,214.342,25,-0.05756902,-0.06597236,-0.01605407,-0.6885961,0.0130997,0.02503933,0.000575142,0.002147152,0.0001891159,0.0003019973,-0.0008727105,0.0003789577,172.17.160.76,10.175.81.193,5,stationary,2,2014-11-13 14:00:32.598,15,2014-11-13 13:57:29.604,0
2014-11-13 14:02:59.332,44574,1485.8,40.11402,-88.22449,225.1876,-1,-1,10,65.3494,1415908971,0.01086426,-0.02548218,-1.001297,20.83277,-29.372,6.876404,211.2704,214.3528,25,-0.05757142,-0.06490177,-0.01498694,-0.6885942,0.01306555,0.02503373,-0.0004946176,-0.002103287,0.0001706117,0.001450019,-0.0002984713,0.00257681,172.17.160.76,10.175.81.193,5,stationary,2,2014-11-13 14:00:32.598,15,2014-11-13 13:57:29.604,0
2014-11-13 14:02:59.366,44575,1485.833,40.11402,-88.22449,225.1876,-1,-1,10,65.3494,1415908971,0.01448059,-0.02479553,-0.9972382,20.79832,-29.33754,7.245117,211.2933,214.3757,25,-0.05863509,-0.06597183,-0.01605007,-0.6885818,0.01301665,0.0250337,-0.0004933753,-0.001040656,0.000176212,-0.001369751,5.24476e-05,-0.002091741,172.17.160.76,10.175.81.193,5,stationary,2,2014-11-13 14:00:32.598,15,2014-11-13 13:57:29.604,0
2014-11-13 14:02:59.400,44576,1485.867,40.11402,-88.22449,225.1876,-1,-1,10,65.3494,1415908971,0.01268005,-0.02554321,-1.000229,20.52267,-28.92407,8.116577,211.3142,214.3966,25,-0.05756982,-0.06703496,-0.01605966,-0.688593,0.01303373,0.02500967,-0.0004930183,2.16798e-05,0.0001817037,0.00145131,0.0002115315,0.002364204,172.17.160.76,10.175.81.193,5,stationary,2,2014-11-13 14:00:32.598,15,2014-11-13 13:57:29.604,0
2014-11-13 14:02:59.433,44577,1485.9,40.11402,-88.22449,225.1876,-1,-1,10,65.3494,1415908971,0.01142883,-0.02558899,-0.9996338,20.6605,-28.92406,8.116577,211.3263,214.4087,25,-0.05650296,-0.06597289,-0.01605806,-0.6885902,0.01298274,0.02502524,0.0005733926,0.001083,0.0001831778,-0.001610513,-0.000444288,0.001021704,172.17.160.76,10.175.81.193,5,stationary,2,2014-11-13 14:00:32.598,15,2014-11-13 13:57:29.604,0
2014-11-13 14:02:59.466,44578,1485.933,40.11402,-88.22449,225.1876,-1,-1,10,65.3494,1415908971,0.01217651,-0.02470398,-0.9968567,20.38486,-29.13081,7.781372,211.3415,214.4239,25,-0.05756902,-0.06597236,-0.01605407,-0.68859,0.01299855,0.02504955,-0.0004929321,0.001083104,0.0001870756,0.002173129,-0.0006641251,-0.001649398,172.17.160.76,10.175.81.193,5,stationary,2,2014-11-13 14:00:32.598,15,2014-11-13 13:57:29.604,0
2014-11-13 14:02:59.499,44579,1485.967,40.11402,-88.22449,225.1876,-1,-1,10,65.3494,1415908971,0.01296997,-0.02507019,-1.000763,20.38486,-29.54427,7.37915,211.3475,214.4299,25,-0.05970195,-0.06703389,-0.01605167,-0.6885931,0.01298698,0.02507397,0.000576665,0.002136501,-0.0008730057,-0.001752061,-0.0001361805,-0.0003376034,172.17.160.76,10.175.81.193,5,stationary,2,2014-11-13 14:00:32.598,15,2014-11-13 13:57:29.604,0
2014-11-13 14:02:59.532,44580,1486,40.11402,-88.22449,225.1876,-1,-1,10,65.3494,1415908971,0.01333618,-0.02520752,-0.9968262,20.3504,-29.57873,7.010498,211.3485,214.4308,25,-0.05757062,-0.06809756,-0.01606525,-0.6885933,0.01299632,0.02505827,-0.001561359,-0.002104431,0.0001744172,0.0006494868,0.0007331341,0.001554759,172.17.160.76,10.175.81.193,5,stationary,2,2014-11-13 14:00:32.598,15,2014-11-13 13:57:29.604,0
2014-11-13 14:02:59.566,44581,1486.033,40.11402,-88.22449,225.1876,-1,-1,10,65.3494,1415908971,0.01167297,-0.02442932,-0.9976044,20.41931,-29.57873,6.94342,211.3523,214.4347,25,-0.05756982,-0.06703496,-0.01605966,-0.6885924,0.01297599,0.02503875,-0.0004932943,0.001082316,0.0001871057,-0.0003677945,0.0005915547,0.001204559,172.17.160.76,10.175.81.193,5,stationary,2,2014-11-13 14:00:32.598,15,2014-11-13 13:57:29.604,0
2014-11-13 14:02:59.599,44582,1486.067,40.11402,-88.22449,225.1876,-1,-1,10,65.3494,1415908971,0.01416016,-0.02481079,-0.9993591,20.45377,-29.6821,6.641785,211.3537,214.4361,25,-0.05756902,-0.06597236,-0.01605407,-0.6885886,0.01293552,0.02502484,0.0005708662,-0.00104375,0.0001718629,-0.001258132,0.0005929098,0.001998888,172.17.160.76,10.175.81.193,5,stationary,2,2014-11-13 14:00:32.598,15,2014-11-13 13:57:29.604,0
2014-11-13 14:02:59.632,44583,1486.1,40.11402,-88.22449,225.1876,-1,-1,10,65.3494,1415908971,0.01359558,-0.02589417,-0.9984283,20.28149,-29.30309,7.010498,211.3596,214.442,25,-0.05757222,-0.06596437,-0.01499253,-0.6885934,0.01298848,0.02505616,0.0005720403,0.001081129,0.0001829137,0.001176119,0.0002427471,0.0002426573,172.17.160.76,10.175.81.193,5,stationary,2,2014-11-13 14:00:32.598,15,2014-11-13 13:57:29.604,0
2014-11-13 14:02:59.666,44584,1486.133,40.11402,-88.22449,225.1876,-1,-1,10,65.3494,1415908971,0.01342773,-0.0249176,-0.9989166,19.69575,-29.26863,7.111084,211.3506,214.433,25,-0.05863269,-0.06704242,-0.0171172,-0.6885444,0.01301449,0.0250857,-0.0004967413,0.002151895,0.001253921,-0.0008487683,-6.341285e-05,0.002454103,172.17.160.76,10.175.81.193,5,stationary,2,2014-11-13 14:00:32.598,15,2014-11-13 13:57:29.604,0
2014-11-13 14:02:59.699,44585,1486.167,40.11402,-88.22449,225.1876,-1,-1,10,65.3494,1415908971,0.01289368,-0.02534485,-0.9972382,20.04031,-28.99299,7.513306,211.3524,214.4348,25,-0.05863109,-0.06491721,-0.01710602,-0.6885514,0.01301109,0.02508704,-0.0004920114,-0.001051347,-0.0008852398,0.00121456,0.0001362922,-0.0005518677,172.17.160.76,10.175.81.193,5,stationary,2,2014-11-13 14:00:32.598,15,2014-11-13 13:57:29.604,0
2014-11-13 14:02:59.733,44586,1486.2,40.11402,-88.22449,225.1876,-1,-1,10,65.3494,1415908971,0.01182556,-0.02476501,-0.9963837,20.10921,-29.19971,7.245117,211.3536,214.4359,25,-0.05863668,-0.06809703,-0.01606126,-0.688558,0.01301982,0.02505098,-0.0004983157,2.656178e-05,0.001243262,-0.0008541128,0.0003901548,-0.002137991,172.17.160.76,10.175.81.193,5,stationary,2,2014-11-13 14:00:32.598,15,2014-11-13 13:57:29.604,0
2014-11-13 14:02:59.766,44587,1486.233,40.11402,-88.22449,225.1876,-1,-1,10,65.3494,1415908971,0.01332092,-0.02578735,-1.002792,20.90168,-29.30308,7.278625,211.3694,214.4518,25,-0.05863509,-0.06597183,-0.01605007,-0.6885501,0.01296799,0.02503727,-0.0004957943,1.777086e-05,0.0001815834,-0.0006649802,0.0006358519,0.001555652,172.17.160.76,10.175.81.193,5,stationary,2,2014-11-13 14:00:32.598,15,2014-11-13 13:57:29.604,0
2014-11-13 14:02:59.799,44588,1486.267,40.11402,-88.22449,225.1876,-1,-1,10,65.3494,1415908971,0.012146,-0.02426147,-0.9960022,20.6605,-29.95773,6.97699,211.378,214.4603,25,-0.05863029,-0.06385461,-0.01710042,-0.6885705,0.01292235,0.02501494,-0.0004954343,-0.003178568,-0.0008968264,-0.0007872095,0.001071289,0.001724648,172.17.160.76,10.175.81.193,5,stationary,2,2014-11-13 14:00:32.598,15,2014-11-13 13:57:29.604,0
2014-11-13 14:02:59.832,44589,1486.3,40.11402,-88.22449,225.1876,-1,-1,10,65.3494,1415908971,0.01400757,-0.0255127,-0.9995117,20.62605,-30.19892,7.144531,211.3765,214.4589,25,-0.05863509,-0.06597183,-0.01605007,-0.6885912,0.01294515,0.0250262,-0.0004925864,9.594363e-06,-0.0008792647,-0.001786563,0.0003196115,0.0007322502,172.17.160.76,10.175.81.193,5,stationary,2,2014-11-13 14:00:32.598,15,2014-11-13 13:57:29.604,0
2014-11-13 14:02:59.866,44590,1486.333,40.11402,-88.22449,225.1876,-1,-1,10,65.3494,1415908971,0.01338196,-0.02444458,-0.9972229,20.45377,-30.44011,7.044067,211.3676,214.45,25,-0.05756582,-0.06598035,-0.0171156,-0.688586,0.01293618,0.02505111,0.0005724184,-0.001053926,-0.0008889482,2.295218e-05,3.933222e-05,0.001937187,172.17.160.76,10.175.81.193,5,stationary,2,2014-11-13 14:00:32.598,15,2014-11-13 13:57:29.604,0
2014-11-13 14:02:59.899,44591,1486.367,40.11402,-88.22449,225.1876,-1,-1,10,65.3494,1415908971,0.01101685,-0.02462769,-1.000259,20.21259,-30.40565,7.278625,211.3586,214.441,25,-0.05863349,-0.06810502,-0.01712279,-0.6885867,0.01296551,0.02505752,-0.0005012346,-0.002100299,0.001232425,0.001916245,0.0002746245,0.0001818861,172.17.160.76,10.175.81.193,5,stationary,2,2014-11-13 14:00:32.598,15,2014-11-13 13:57:29.604,0
2014-11-13 14:02:59.932,44592,1486.4,40.11402,-88.22449,225.1876,-1,-1,10,65.3494,1415908971,0.01156616,-0.02581787,-1.002762,20.38486,-30.44011,6.97699,211.3429,214.4253,25,-0.05329198,-0.04897287,-0.01598056,-0.6885952,0.01300296,0.02504917,0.0005667954,-0.00317189,0.0001611883,-0.0002116516,-0.000862872,-0.003282136,172.17.160.76,10.175.81.193,5,stationary,2,2014-11-13 14:00:32.598,15,2014-11-13 13:57:29.604,0
2014-11-13 14:02:59.966,44593,1486.433,40.11402,-88.22449,225.1876,-1,-1,10,65.3494,1415908971,0.01026917,-0.02633667,-1.000473,20.31596,-30.02664,7.044006,211.3379,214.4202,25,-0.05222592,-0.0489734,-0.01598456,-0.6885945,0.01303412,0.02512044,-0.003698313,-0.004232866,0.0001714834,0.0002455068,-0.001463017,-0.009448879,172.17.160.76,10.175.81.193,5,stationary,2,2014-11-13 14:00:32.598,15,2014-11-13 13:57:29.604,0
2014-11-13 14:02:59.999,44594,1486.467,40.11402,-88.22449,225.1876,-1,-1,10,65.3494,1415908971,0.04260254,-0.03721619,-1.238434,20.76387,-29.85436,7.211609,211.3458,214.4282,25,0.09102844,0.4258261,-0.02888145,-0.6885868,0.01327555,0.02528855,0.02514477,0.07012677,-0.0006057019,-0.003001751,-0.001050817,-0.0008808514,172.17.160.76,10.175.81.193,5,stationary,2,2014-11-13 14:00:32.598,15,2014-11-13 13:57:29.604,0
2014-11-13 14:03:00.034,44595,1486.5,40.11402,-88.22449,225.1876,-1,-1,10,65.3494,1415908971,0.02677917,-0.02641296,-0.9974976,20.72942,-29.47536,7.647278,211.806,214.8884,25,-0.05863509,-0.06171343,-0.01496617,-0.688804,0.02483589,0.02920426,0.1491667,0.491813,-0.01264883,-0.01984838,-0.01772067,0.1169869,172.17.160.76,10.175.81.193,5,stationary,2,2014-11-13 14:00:32.598,15,2014-11-13 13:57:29.604,0
2014-11-13 14:03:00.066,44596,1486.533,40.11402,-88.22449,225.1876,-1,-1,10,65.3494,1415908971,-0.1750031,-0.1523895,-1.001984,20.66051,-29.88882,7.580261,211.5926,214.675,25,-0.06010515,0.01009604,0.4906829,-0.687566,0.02489291,0.02925089,7.043765e-05,0.04064852,0.1755387,-0.1831439,-0.04112682,-0.005421905,172.17.160.76,10.175.81.193,5,stationary,2,2014-11-13 14:00:32.598,15,2014-11-13 13:57:29.604,0
2014-11-13 14:03:00.099,44597,1486.567,40.11402,-88.22449,225.1876,-1,-1,10,65.3494,1415908971,-0.1862488,-0.08857727,-0.9898834,20.52269,-30.09557,7.37915,211.2838,214.3662,25,-0.05443634,-0.08868966,1.060157,-0.6733717,0.02566648,0.02956055,-0.002877911,0.05440614,1.156431,-0.3998742,-0.1065064,-0.002780264,172.17.160.76,10.175.81.193,5,stationary,2,2014-11-13 14:00:32.598,15,2014-11-13 13:57:29.604,0
2014-11-13 14:03:00.132,44598,1486.6,40.11402,-88.22449,225.1876,-1,-1,10,65.3494,1415908971,-0.3372955,0.1078033,-0.9730377,20.59159,-30.16447,7.111023,211.0601,214.1425,25,-0.06384609,-0.0609507,-0.7611645,-0.6410284,0.02438803,0.03054092,0.008466157,-0.003210279,-0.1452915,-0.2881987,0.1325259,-0.02655093,172.17.160.76,10.175.81.193,5,stationary,2,2014-11-13 14:00:32.598,15,2014-11-13 13:57:29.604,0
2014-11-13 14:03:00.166,44599,1486.633,40.11402,-88.22449,225.1876,-1,-1,10,65.3494,1415908971,-0.1976471,-0.003387451,-1.046387,21.24625,-29.57873,7.61377,212.0484,215.1308,25,-0.05428108,0.08655593,-1.774139,-0.6716949,0.02571638,0.02988987,0.009281056,0.01550304,-1.470986,-0.3373018,0.07029069,-0.01377766,172.17.160.76,10.175.81.193,5,stationary,2,2014-11-13 14:00:32.598,15,2014-11-13 13:57:29.604,0
2014-11-13 14:03:00.199,44600,1486.667,40.11402,-88.22449,225.1876,-1,-1,10,65.3494,1415908971,0.3213806,0.1622314,-0.989151,21.2807,-29.13081,7.446228,212.5733,215.6557,25,-0.1157104,-0.03844806,-2.29257,-0.7078389,0.02948118,0.02826066,-0.086121,0.1339554,-1.974209,-0.2271122,0.02486945,-0.04722039,172.17.160.76,10.175.81.193,5,stationary,2,2014-11-13 14:00:32.598,15,2014-11-13 13:57:29.604,0
2014-11-13 14:03:00.232,44601,1486.7,40.11402,-88.22449,225.1876,-1,-1,10,65.3494,1415908971,0.7667999,0.0176239,-0.7920227,22.9001,-27.78706,7.881958,215.8317,218.9141,25,-0.04016127,0.1689227,-3.253464,-0.8323644,0.0227004,0.021192,0.003626941,-1.407068,-3.139676,0.5577815,0.1138723,0.100409,172.17.160.76,10.175.81.193,5,stationary,2,2014-11-13 14:00:32.598,15,2014-11-13 13:57:29.604,0
2014-11-13 14:03:00.266,44602,1486.733,40.11402,-88.22449,225.1876,-1,-1,10,65.3494,1415908971,0.9162598,0.2684174,-0.9812469,24.51949,-25.89201,8.116638,219.9165,222.9989,25,-0.1005468,-0.104528,-2.741982,-0.9287779,0.0190083,0.01947703,0.02355003,0.1358191,-2.990449,0.7535794,0.1411494,0.03448078,172.17.160.76,10.175.81.193,5,stationary,2,2014-11-13 14:00:32.598,15,2014-11-13 13:57:29.604,0
2014-11-13 14:03:00.299,44603,1486.767,40.11402,-88.22449,225.1876,-1,-1,10,65.3494,1415908971,0.01412964,-0.2504578,-1.088486,25.75989,-25.13399,8.585876,222.424,225.5063,25,0.1107958,0.4749364,-0.5615608,-1.008735,0.02059683,0.01694201,-0.03790329,0.001305086,-2.089729,0.8956674,0.2853585,0.01839746,172.17.160.76,10.175.81.193,5,stationary,2,2014-11-13 14:00:32.598,15,2014-11-13 13:57:29.604,0
2014-11-13 14:03:00.332,44604,1486.8,40.11402,-88.22449,225.1876,-1,-1,10,65.3494,1415908971,-0.2674103,0.02929688,-0.9304657,26.65572,-24.85835,7.982544,224.8484,227.9308,25,-0.04784555,0.1152366,2.461301,-0.969155,0.02858265,0.01941407,0.0144827,0.08771034,2.477026,-0.2131895,-0.2128412,-0.002198999,172.17.160.76,10.175.81.193,5,stationary,2,2014-11-13 14:00:32.598,15,2014-11-13 13:57:29.604,0
2014-11-13 14:03:00.366,44605,1486.833,40.11402,-88.22449,225.1876,-1,-1,10,65.3494,1415908971,-0.2538147,-0.09625244,-0.9333038,25.72543,-25.85756,7.345703,222.8446,225.9269,25,-0.01351741,-0.0817436,1.279767,-0.8815334,0.03089703,0.02288404,0.01710678,0.2142233,1.639111,-0.3403018,-0.2594361,-0.1249608,172.17.160.76,10.175.81.193,5,stationary,2,2014-11-13 14:00:32.598,15,2014-11-13 13:57:29.604,0
2014-11-13 14:03:00.399,44606,1486.867,40.11402,-88.22449,225.1876,-1,-1,10,65.3494,1415908971,0.09068298,-0.0005187988,-0.9927673,25.17414,-26.47775,7.144592,221.3398,224.4222,25,-0.05892537,-0.01733292,0.7994253,-0.8568575,0.03099315,0.02426339,0.01130192,0.01313145,1.038337,-0.2495612,-0.03108262,-0.04697806,172.17.160.76,10.175.81.193,5,stationary,2,2014-11-13 14:00:32.598,15,2014-11-13 13:57:29.604,0
2014-11-13 14:03:00.432,44607,1486.9,40.11402,-88.22449,225.1876,-1,-1,10,65.3494,1415908971,0.1238251,-0.1850891,-0.9947662,23.96821,-27.40804,7.312256,218.7359,221.8182,25,-0.07220815,-0.1023277,1.647152,-0.8215222,0.03079948,0.02523218,-0.004240219,-0.06197074,1.223759,0.1690443,-0.02184386,0.03451641,172.17.160.76,10.175.81.193,5,stationary,2,2014-11-13 14:00:32.598,15,2014-11-13 13:57:29.604,0
2014-11-13 14:03:00.466,44608,1486.933,40.11402,-88.22449,225.1876,-1,-1,10,65.3494,1415908971,-0.3043365,-0.1226349,-0.9947662,22.96902,-28.40723,7.345703,216.5762,219.6586,25,-0.1482654,-0.2323187,1.735916,-0.7680197,0.02930169,0.02636327,-0.05101254,0.006920634,1.903645,-0.1819362,-0.05478603,-0.03596337,172.17.160.76,10.175.81.193,5,stationary,2,2014-11-13 14:00:32.598,15,2014-11-13 13:57:29.604,0
2014-11-13 14:03:00.499,44609,1486.967,40.11402,-88.22449,225.1876,-1,-1,10,65.3494,1415908971,-0.4792938,-0.1434784,-0.9939728,22.21101,-28.95851,7.345703,214.9998,218.0822,25,-0.001079113,0.1618584,0.7523856,-0.7197859,0.02352178,0.02562443,-0.01218347,-0.1044159,1.372172,-0.3636303,-0.1220682,0.02803593,172.17.160.76,10.175.81.193,5,stationary,2,2014-11-13 14:00:32.598,15,2014-11-13 13:57:29.604,0
2014-11-13 14:03:00.532,44610,1487,40.11402,-88.22449,225.1876,-1,-1,10,65.3494,1415908971,-0.3135223,0.1377106,-1.053513,21.10844,-29.30306,7.278748,212.6973,215.7796,25,0.06756014,-0.1644417,0.179333,-0.6991662,0.02524513,0.02708877,0.05705316,0.2278409,0.7686179,-0.4028272,-0.04917797,0.002503684,172.17.160.76,10.175.81.193,5,unknown,0,2014-11-13 14:03:00.474,15,2014-11-13 13:57:29.604,0
2014-11-13 14:03:00.566,44611,1487.033,40.11402,-88.22449,225.1876,-1,-1,10,65.3494,1415908971,0.453064,0.07562256,-1.039566,21.55635,-29.1997,7.111145,212.9294,216.0118,25,-0.07030266,-0.08635993,-2.161369,-0.758976,0.02942752,0.02706981,0.01705989,-0.1157304,-2.671182,0.07553745,0.4212926,-0.05591391,172.17.160.76,10.175.81.193,5,unknown,0,2014-11-13 14:03:00.474,15,2014-11-13 13:57:29.604,0
2014-11-13 14:03:00.599,44612,1487.067,40.11402,-88.22449,225.1876,-1,-1,10,65.3494,1415908971,0.3301849,-0.0491333,-1.007446,22.10764,-28.78624,7.178223,214.3118,217.3941,25,-0.05497057,-0.1187754,-0.5375295,-0.8250102,0.02908254,0.02512453,0.01677186,-0.1953797,-1.535815,0.401549,0.0662138,-0.006109432,172.17.160.76,10.175.81.193,5,unknown,0,2014-11-13 14:03:00.474,15,2014-11-13 13:57:29.604,0
2014-11-13 14:03:00.632,44613,1487.1,40.11402,-88.22449,225.1876,-1,-1,10,65.3494,1415908971,-0.004135132,-0.0279541,-0.992157,23.48584,-27.68367,7.111145,217.6931,220.7755,25,-0.06180931,-0.08093453,-0.02779328,-0.8449792,0.02849458,0.0246812,0.00321735,-0.06624124,-0.1901862,0.1882233,-0.02913906,0.01309882,172.17.160.76,10.175.81.193,5,unknown,0,2014-11-13 14:03:00.474,15,2014-11-13 13:57:29.604,0
2014-11-13 14:03:00.666,44614,1487.133,40.11402,-88.22449,225.1876,-1,-1,10,65.3494,1415908971,0.01455688,-0.04208374,-1.00061,24.14049,-26.75338,7.278748,219.252,222.3343,25,-0.06373797,-0.07452536,-0.4470377,-0.8498055,0.02722252,0.02450015,-0.004901075,-0.009775963,-0.311929,-0.006840508,-0.00444822,0.004761616,172.17.160.76,10.175.81.193,5,unknown,0,2014-11-13 14:03:00.474,15,2014-11-13 13:57:29.604,0
2014-11-13 14:03:00.699,44615,1487.167,40.11402,-88.22449,225.1876,-1,-1,10,65.3494,1415908971,0.1409912,-0.02641296,-1.009979,24.31277,-26.58111,7.111145,219.5792,222.6616,25,-0.06023618,-0.06676918,-0.5457278,-0.8585165,0.02733744,0.02426267,0.005183813,-0.004619814,-0.473285,-0.01931512,0.00109745,-0.008220959,172.17.160.76,10.175.81.193,5,unknown,0,2014-11-13 14:03:00.474,15,2014-11-13 13:57:29.604,0
2014-11-13 14:03:00.732,44616,1487.2,40.11402,-88.22449,225.1876,-1,-1,10,65.3494,1415908971,0.1710663,-0.03434753,-1.001541,24.76069,-26.8223,7.345764,220.0386,223.1209,25,-0.05883988,-0.06599526,-0.3015881,-0.8781382,0.02771843,0.02366088,-0.001389599,-0.000981933,-0.4137984,0.1394071,-0.03942117,0.004875011,172.17.160.76,10.175.81.193,5,unknown,0,2014-11-13 14:03:00.474,15,2014-11-13 13:57:29.604,0
2014-11-13 14:03:00.766,44617,1487.233,40.11402,-88.22449,225.1876,-1,-1,10,65.3494,1415908971,0.2250366,-0.02064514,-1.006104,25.03634,-26.61557,7.278748,220.6762,223.7586,25,-0.0546747,-0.05723293,-0.2665286,-0.8838974,0.02785347,0.02348677,-0.0007799095,0.001222436,-0.2619972,0.1432241,-0.01086292,-0.002204715,172.17.160.76,10.175.81.193,5,unknown,0,2014-11-13 14:03:00.474,15,2014-11-13 13:57:29.604,0
2014-11-13 14:03:00.799,44618,1487.267,40.11402,-88.22449,225.1876,-1,-1,10,65.3494,1415908971,-0.03762817,-0.1326447,-0.9652405,24.89852,-26.40884,7.479797,220.9888,224.0711,25,-0.05529468,-0.0423661,1.003084,-0.8735205,0.02815474,0.02375088,0.002099717,0.004686017,0.9045788,0.02715477,-0.03406691,-0.01637954,172.17.160.76,10.175.81.193,5,unknown,0,2014-11-13 14:03:00.474,15,2014-11-13 13:57:29.604,0
2014-11-13 14:03:00.832,44619,1487.3,40.11402,-88.22449,225.1876,-1,-1,10,65.3494,1415908971,-0.2058258,-0.04330444,-0.9792023,24.10605,-27.20131,7.245178,219.8131,222.8955,25,-0.05423847,-0.02158545,0.6582083,-0.8530145,0.02794981,0.0243117,0.002833985,0.02361231,1.019316,-0.06556609,-0.1083353,0.03407355,172.17.160.76,10.175.81.193,5,unknown,0,2014-11-13 14:03:00.474,15,2014-11-13 13:57:29.604,0
2014-11-13 14:03:00.866,44620,1487.333,40.11402,-88.22449,225.1876,-1,-1,10,65.3494,1415908971,-0.0006713867,-0.01824951,-1.00032,23.27913,-28.23496,7.446289,217.7875,220.8698,25,-0.05955254,-0.06847201,-0.06594945,-0.8297397,0.02855129,0.0249263,0.001347212,-0.01207511,0.08927502,-0.2229813,-0.01342162,0.007216492,172.17.160.76,10.175.81.193,5,unknown,0,2014-11-13 14:03:00.474,15,2014-11-13 13:57:29.604,0
2014-11-13 14:03:00.899,44621,1487.367,40.11402,-88.22449,225.1876,-1,-1,10,65.3494,1415908971,0.09727478,-0.01452637,-1.001099,23.03794,-28.47615,7.144653,217.2238,220.3061,25,-0.05814746,-0.07304305,0.1739161,-0.8305494,0.02836358,0.02491145,-0.001424632,-0.00249445,-0.04971836,-0.02902236,0.006659361,-0.001032803,172.17.160.76,10.175.81.193,5,unknown,0,2014-11-13 14:03:00.474,15,2014-11-13 13:57:29.604,0
2014-11-13 14:03:00.932,44622,1487.4,40.11402,-88.22449,225.1876,-1,-1,10,65.3494,1415908971,0.02655029,-0.02598572,-0.9984131,22.90012,-27.5114,6.943604,217.575,220.6574,25,-0.05970195,-0.06703389,-0.01605167,-0.8267545,0.02785126,0.02505055,0.0005631048,-0.002136655,-0.001957396,-0.0003273305,0.00875154,0.001770476,172.17.160.76,10.175.81.193,5,unknown,0,2014-11-13 14:03:00.474,15,2014-11-13 13:57:29.604,0
2014-11-13 14:03:00.966,44623,1487.433,40.11402,-88.22449,225.1876,-1,-1,10,65.3494,1415908971,0.02914429,-0.02578735,-0.9976349,23.10685,-27.23576,6.675415,217.8647,220.9471,25,-0.05756822,-0.06490976,-0.01604847,-0.8267545,0.02781949,0.02504596,-0.0005128955,-0.002112546,0.001231111,-0.002477584,-0.0008813403,0.0002303369,172.17.160.76,10.175.81.193,5,unknown,0,2014-11-13 14:03:00.474,15,2014-11-13 13:57:29.604,0
2014-11-13 14:03:00.999,44624,1487.467,40.11402,-88.22449,225.1876,-1,-1,10,65.3494,1415908971,0.02934265,-0.02464294,-1.000107,23.17577,-27.30466,6.675415,217.9029,220.9853,25,-0.05756902,-0.06597236,-0.01605407,-0.8267469,0.02780353,0.02503115,-0.0005101642,-0.002121061,0.0001694454,0.00356557,0.0009806843,0.002031688,172.17.160.76,10.175.81.193,5,unknown,0,2014-11-13 14:03:00.474,15,2014-11-13 13:57:29.604,0
2014-11-13 14:03:01.032,44625,1487.5,40.11402,-88.22449,225.1876,-1,-1,10,65.3494,1415908971,0.02639771,-0.025177,-0.9974365,23.00349,-27.8215,6.843018,217.3955,220.4779,25,-0.05650136,-0.06810609,-0.01713078,-0.8267522,0.02778244,0.02502642,-0.001574923,4.341632e-06,0.0001845429,0.003617158,0.0003503429,0.001132124,172.17.160.76,10.175.81.193,5,unknown,0,2014-11-13 14:03:00.474,15,2014-11-13 13:57:29.604,0
2014-11-13 14:03:01.066,44626,1487.533,40.11402,-88.22449,225.1876,-1,-1,10,65.3494,1415908971,0.02574158,-0.02484131,-0.9998322,23.48586,-28.02823,7.178223,217.5507,220.6331,25,-0.05863189,-0.06597982,-0.01711161,-0.8267631,0.02775081,0.02503219,-0.001572873,-0.001066643,-0.0008826825,-0.0007610215,-0.0004068267,9.525962e-05,172.17.160.76,10.175.81.193,5,unknown,0,2014-11-13 14:03:00.474,15,2014-11-13 13:57:29.604,0
2014-11-13 14:03:01.099,44627,1487.567,40.11402,-88.22449,225.1876,-1,-1,10,65.3494,1415908971,0.02905273,-0.02441406,-0.999054,23.55477,-27.95932,7.513367,217.5606,220.643,25,-0.05970195,-0.06703389,-0.01605167,-0.8267507,0.02755371,0.0250742,0.0005565934,1.368567e-06,0.0001763566,-0.001769465,-0.0005326789,0.0009846656,172.17.160.76,10.175.81.193,5,unknown,0,2014-11-13 14:03:00.474,15,2014-11-13 13:57:29.604,0
2014-11-13 14:03:01.132,44628,1487.6,40.11402,-88.22449,225.1876,-1,-1,10,65.3494,1415908971,0.02807617,-0.0241394,-0.9983826,24.00269,-27.99377,7.680908,217.6185,220.7009,25,-0.05863908,-0.06702644,-0.01499413,-0.8267629,0.02781035,0.02505677,0.001625403,-6.275515e-06,-0.0008893055,0.004077572,-0.0003212176,0.0002150614,172.17.160.76,10.175.81.193,5,unknown,0,2014-11-13 14:03:00.474,15,2014-11-13 13:57:29.604,0
2014-11-13 14:03:01.166,44629,1487.633,40.11402,-88.22449,225.1876,-1,-1,10,65.3494,1415908971,0.02781677,-0.02537537,-0.9973602,23.93378,-27.85594,7.010559,217.6621,220.7445,25,-0.05756822,-0.06490976,-0.01604847,-0.8267589,0.02782002,0.02500755,0.0005553885,1.905255e-06,0.0001760996,0.0008330108,0.0001788947,-0.0019965,172.17.160.76,10.175.81.193,5,unknown,0,2014-11-13 14:03:00.474,15,2014-11-13 13:57:29.604,0
2014-11-13 14:03:01.199,44630,1487.667,40.11402,-88.22449,225.1876,-1,-1,10,65.3494,1415908971,0.02868652,-0.02601624,-1.001602,23.79596,-27.92485,6.675415,217.672,220.7543,25,-0.05863109,-0.06491721,-0.01710602,-0.8267503,0.02785926,0.02503944,-0.0005141853,1.028082e-05,0.001241528,0.001312626,-0.000170697,4.628796e-05,172.17.160.76,10.175.81.193,5,unknown,0,2014-11-13 14:03:00.474,15,2014-11-13 13:57:29.604,0
2014-11-13 14:03:01.232,44631,1487.7,40.11402,-88.22449,225.1876,-1,-1,10,65.3494,1415908971,0.02879333,-0.02600098,-0.9972076,23.58923,-27.92485,6.675415,217.674,220.7564,25,-0.05756662,-0.06704295,-0.0171212,-0.8267466,0.02794755,0.02511596,0.0005527198,0.001072267,0.00124303,0.0007514289,-0.0009029162,-0.002307946,172.17.160.76,10.175.81.193,5,unknown,0,2014-11-13 14:03:00.474,15,2014-11-13 13:57:29.604,0
2014-11-13 14:03:01.266,44632,1487.733,40.11402,-88.22449,225.1876,-1,-1,10,65.3494,1415908971,0.02970886,-0.02412415,-1.0009,23.3136,-28.20049,7.278687,217.5762,220.6586,25,-0.05756902,-0.06597236,-0.01605407,-0.8267609,0.02795407,0.02512147,-0.000507389,0.001056324,-0.0008761785,-0.0001095799,9.441153e-05,0.0008655615,172.17.160.76,10.175.81.193,5,unknown,0,2014-11-13 14:03:00.474,15,2014-11-13 13:57:29.604,0
2014-11-13 14:03:01.299,44633,1487.767,40.11402,-88.22449,225.1876,-1,-1,10,65.3494,1415908971,0.02905273,-0.02435303,-0.9988098,23.48588,-28.30386,7.245117,217.5361,220.6184,25,-0.05756822,-0.06490976,-0.01604847,-0.8267408,0.0280959,0.02503644,-0.0005152823,9.974479e-06,0.001241162,0.002556251,0.0004976973,0.001702953,172.17.160.76,10.175.81.193,5,unknown,0,2014-11-13 14:03:00.474,15,2014-11-13 13:57:29.604,0
2014-11-13 14:03:01.332,44634,1487.8,40.11402,-88.22449,225.1876,-1,-1,10,65.3494,1415908971,0.02539062,-0.02529907,-0.9982452,23.45143,-28.33831,7.144592,217.4627,220.5451,25,-0.05863588,-0.06703443,-0.01605567,-0.8267331,0.02817391,0.02500135,-0.001579279,1.195329e-05,0.001245216,0.0008913554,0.0006457188,0.0004809338,172.17.160.76,10.175.81.193,5,unknown,0,2014-11-13 14:03:00.474,15,2014-11-13 13:57:29.604,0
2014-11-13 14:03:01.366,44635,1487.833,40.11402,-88.22449,225.1876,-1,-1,10,65.3494,1415908971,0.02748108,-0.02514648,-1.000641,23.96825,-28.02821,7.111084,217.4898,220.5722,25,-0.05756902,-0.06597236,-0.01605407,-0.8267233,0.02807113,0.02501304,0.0005556338,1.876861e-06,0.0001755754,-0.0002266281,0.0002454196,0.001414317,172.17.160.76,10.175.81.193,5,unknown,0,2014-11-13 14:03:00.474,15,2014-11-13 13:57:29.604,0
2014-11-13 14:03:01.399,44636,1487.867,40.11402,-88.22449,225.1876,-1,-1,10,65.3494,1415908971,0.02842712,-0.02397156,-0.9988251,24.14053,-27.71812,7.41272,217.5207,220.6031,25,-0.05863828,-0.06596383,-0.01498854,-0.8267397,0.02816417,0.02501712,0.0005551763,1.772213e-06,0.0001754351,0.003266212,0.0005546744,-0.0003584197,172.17.160.76,10.175.81.193,5,unknown,0,2014-11-13 14:03:00.474,15,2014-11-13 13:57:29.604,0
2014-11-13 14:03:01.432,44637,1487.9,40.11402,-88.22449,225.1876,-1,-1,10,65.3494,1415908971,0.02766418,-0.02598572,-0.99823,24.20943,-27.5114,7.61377,217.5671,220.6495,25,-0.05757062,-0.06809756,-0.01606525,-0.8267232,0.02817679,0.02493974,0.0005544922,1.330595e-06,0.0001753136,-0.0003627831,-0.0004687249,-0.001074006,172.17.160.76,10.175.81.193,5,unknown,0,2014-11-13 14:03:00.474,15,2014-11-13 13:57:29.604,0
2014-11-13 14:03:01.466,44638,1487.933,40.11402,-88.22449,225.1876,-1,-1,10,65.3494,1415908971,0.02792358,-0.0256958,-0.9990692,24.03716,-27.2702,7.513245,217.614,220.6964,25,-0.05863588,-0.06703443,-0.01605567,-0.8267143,0.02819503,0.02499421,0.001619655,-0.001061939,0.0001656292,0.0005192896,-0.000948331,0.003028735,172.17.160.76,10.175.81.193,5,unknown,0,2014-11-13 14:03:00.474,15,2014-11-13 13:57:29.604,0
2014-11-13 14:03:01.499,44639,1487.967,40.11402,-88.22449,225.1876,-1,-1,10,65.3494,1415908971,0.02963257,-0.02568054,-0.9973602,24.00271,-27.23574,7.345703,217.6357,220.7181,25,-0.05863509,-0.06597183,-0.01605007,-0.8267146,0.02818837,0.02499581,-0.000512789,-0.001061198,0.0001735197,0.001670358,0.000121379,-0.002387987,172.17.160.76,10.175.81.193,5,unknown,0,2014-11-13 14:03:00.474,15,2014-11-13 13:57:29.604,0
2014-11-13 14:03:01.532,44640,1488,40.11402,-88.22449,225.1876,-1,-1,10,65.3494,1415908971,0.02975464,-0.02481079,-1.000809,24.07162,-27.92484,7.412598,217.6584,220.7408,25,-0.05863109,-0.06491721,-0.01710602,-0.8267081,0.0282741,0.02501012,0.0005599649,-1.531525e-05,-0.001948125,0.0001503702,-6.26746e-05,-0.0008191092,172.17.160.76,10.175.81.193,5,unknown,0,2014-11-13 14:03:00.474,15,2014-11-13 13:57:29.604,0
2014-11-13 14:03:01.566,44641,1488.033,40.11402,-88.22449,225.1876,-1,-1,10,65.3494,1415908971,0.02719116,-0.02456665,-0.9987793,23.9338,-27.99375,7.747803,217.6587,220.741,25,-0.05863269,-0.06704242,-0.0171172,-0.826722,0.02832796,0.02502445,0.0005565613,-7.343507e-06,-0.0008866604,0.00105787,-0.0004450785,-0.001248237,172.17.160.76,10.175.81.193,5,unknown,0,2014-11-13 14:03:00.474,15,2014-11-13 13:57:29.604,0
2014-11-13 14:03:01.599,44642,1488.067,40.11402,-88.22449,225.1876,-1,-1,10,65.3494,1415908971,0.02784729,-0.0249939,-0.9980774,23.69261,-28.71731,7.848389,217.6444,220.7268,25,-0.05863828,-0.06596383,-0.01498854,-0.8267211,0.02833335,0.02502341,0.0005528969,2.64543e-07,0.0001747585,0.0010067,0.000469403,-0.001202587,172.17.160.76,10.175.81.193,5,unknown,0,2014-11-13 14:03:00.474,15,2014-11-13 13:57:29.604,0
2014-11-13 14:03:01.632,44643,1488.1,40.11402,-88.22449,225.1876,-1,-1,10,65.3494,1415908971,0.02772522,-0.02536011,-0.9977112,23.79597,-27.92483,7.948975,217.6337,220.716,25,-0.05970115,-0.06597129,-0.01604608,-0.8267234,0.02837511,0.02501695,-0.0005062788,0.001056513,-0.0008667356,-0.0005151369,2.04478e-05,0.001207279,172.17.160.76,10.175.81.193,5,unknown,0,2014-11-13 14:03:00.474,15,2014-11-13 13:57:29.604,0
2014-11-13 14:03:01.666,44644,1488.133,40.11402,-88.22449,225.1876,-1,-1,10,65.3494,1415908971,0.02935791,-0.02482605,-0.999527,23.76152,-28.0971,7.513184,217.6316,220.714,25,-0.05863748,-0.06490123,-0.01498294,-0.8267291,0.02828485,0.02499169,-0.000509973,0.001063564,0.0001946802,-0.002286531,-5.058015e-05,0.00015761,172.17.160.76,10.175.81.193,5,unknown,0,2014-11-13 14:03:00.474,15,2014-11-13 13:57:29.604,0
2014-11-13 14:03:01.699,44645,1488.167,40.11402,-88.22449,225.1876,-1,-1,10,65.3494,1415908971,0.02955627,-0.02441406,-0.9970703,23.96825,-27.33909,7.513184,217.6395,220.7219,25,-0.05757142,-0.06490177,-0.01498694,-0.8267239,0.02842269,0.02495878,0.0005522428,0.001070947,0.001252059,0.001527732,0.0002827274,0.0003681481,172.17.160.76,10.175.81.193,5,unknown,0,2014-11-13 14:03:00.474,15,2014-11-13 13:57:29.604,0
2014-11-13 14:03:01.732,44646,1488.2,40.11402,-88.22449,225.1876,-1,-1,10,65.3494,1415908971,0.02738953,-0.02603149,-0.9990845,24.34726,-27.37354,7.278564,217.6637,220.7461,25,-0.05969715,-0.06491669,-0.01710202,-0.8267239,0.02843367,0.02497843,-0.0005084822,-7.44403e-06,-0.0008727066,-0.001382398,-0.0009488515,0.0004894161,172.17.160.76,10.175.81.193,5,stationary,1,2014-11-13 14:03:01.709,15,2014-11-13 13:57:29.604,0
2014-11-13 14:03:01.766,44647,1488.233,40.11402,-88.22449,225.1876,-1,-1,10,65.3494,1415908971,0.02900696,-0.02603149,-0.9977264,24.45062,-27.27017,7.37915,217.6893,220.7717,25,-0.05863588,-0.06703443,-0.01605567,-0.8267222,0.02839792,0.02501489,-0.0005133698,-0.002125231,0.0001775589,-6.490459e-05,-0.0008818879,-0.0007159236,172.17.160.76,10.175.81.193,5,stationary,1,2014-11-13 14:03:01.709,15,2014-11-13 13:57:29.604,0
2014-11-13 14:03:01.799,44648,1488.267,40.11402,-88.22449,225.1876,-1,-1,10,65.3494,1415908971,0.03094482,-0.025177,-1.002731,24.48508,-27.51136,7.412598,217.7011,220.7835,25,-0.05756822,-0.06490976,-0.01604847,-0.8267213,0.02836787,0.02500693,0.000553951,-1.029389e-06,0.0001846534,-0.001011445,0.0004681915,0.00342026,172.17.160.76,10.175.81.193,5,stationary,1,2014-11-13 14:03:01.709,15,2014-11-13 13:57:29.604,0
2014-11-13 14:03:01.832,44649,1488.3,40.11402,-88.22449,225.1876,-1,-1,10,65.3494,1415908971,0.02992249,-0.02500916,-0.9994659,23.6926,-27.82146,7.379089,217.7022,220.7845,25,-0.05756902,-0.06597236,-0.01605407,-0.8267177,0.02834963,0.02502468,-0.00051346,-0.001063761,0.0001829101,-0.001878218,-0.00012442,0.002626876,172.17.160.76,10.175.81.193,5,stationary,1,2014-11-13 14:03:01.709,15,2014-11-13 13:57:29.604,0
2014-11-13 14:03:01.866,44650,1488.333,40.11402,-88.22449,225.1876,-1,-1,10,65.3494,1415908971,0.02757263,-0.02609253,-0.9948578,23.45142,-27.58028,7.345642,217.6971,220.7794,25,-0.05756582,-0.06598035,-0.0171156,-0.8267259,0.02838027,0.02502529,-0.0005097477,-9.227318e-06,-0.0008731038,0.0005020568,0.0005781017,0.0001235504,172.17.160.76,10.175.81.193,5,stationary,1,2014-11-13 14:03:01.709,15,2014-11-13 13:57:29.604,0
2014-11-13 14:03:01.899,44651,1488.367,40.11402,-88.22449,225.1876,-1,-1,10,65.3494,1415908971,0.0289917,-0.02485657,-1.002777,23.34805,-27.68365,7.110962,217.6926,220.7749,25,-0.05756582,-0.06598035,-0.0171156,-0.8267522,0.02828308,0.0250924,-0.0005023476,0.0010447,-0.001875625,-0.00130813,-0.001170615,0.0005823856,172.17.160.76,10.175.81.193,5,stationary,1,2014-11-13 14:03:01.709,15,2014-11-13 13:57:29.604,0
2014-11-13 14:03:01.932,44652,1488.4,40.11402,-88.22449,225.1876,-1,-1,10,65.3494,1415908971,0.02871704,-0.02423096,-0.9983063,23.6926,-27.61474,6.976868,217.6902,220.7726,25,-0.05756982,-0.06703496,-0.01605966,-0.8267469,0.02833794,0.02511771,-0.0005098149,-2.031501e-06,0.0002417511,0.003413067,-0.0005044393,-0.001739138,172.17.160.76,10.175.81.193,5,stationary,1,2014-11-13 14:03:01.709,15,2014-11-13 13:57:29.604,0
2014-11-13 14:03:01.966,44653,1488.433,40.11402,-88.22449,225.1876,-1,-1,10,65.3494,1415908971,0.02767944,-0.02526855,-0.999176,23.65815,-27.85593,7.077454,217.6899,220.7723,25,-0.05863828,-0.06596383,-0.01498854,-0.8267412,0.02840214,0.02506758,0.0005556815,-2.639538e-06,0.0002376435,0.0003276425,0.0008339941,0.0009763634,172.17.160.76,10.175.81.193,5,stationary,1,2014-11-13 14:03:01.709,15,2014-11-13 13:57:29.604,0
