time,timestamp,recordtime,lat,long,alt,speed,course,verticalAccuracy,horizontalAccuracy,locTimeStamp,accelerationX,accelerationY,accelerationZ,HeadingX,HeadingY,HeadingZ,TrueHeading,MagneticHeading,HeadingAccuracy,RotationX,RotationY,RotationZ,motionYaw,motionRoll,motionPitch,motionRotationRateX,motionRotationRateY,motionRotationRateZ,motionUserAccelerationX,motionUserAccelerationY,motionUserAccelerationZ,en0,pdp_ip0,DeviceOrientation,Activity,Activity Confidence,Activity Start,Steps,Last Step Date,State
2014-11-13 14:12:23.832,61509,2050.3,40.11403,-88.22443,225.0587,-1,-1,10,79.21869,1415909526,0.0027771,-0.0329895,-1.000824,9.358994,-32.57604,7.912415,193.1617,196.244,25,-0.05970115,-0.06597129,-0.01604608,-0.2716643,0.001725801,0.03436585,0.0002609809,0.0001103209,-0.0005154741,-0.000702442,-0.00146855,0.001056013,172.17.160.76,10.175.81.193,5,stationary,2,2014-11-13 14:11:00.783,15,2014-11-13 13:57:29.604,0
2014-11-13 14:12:23.866,61510,2050.333,40.11403,-88.22443,225.0587,-1,-1,10,79.21869,1415909526,0.001907349,-0.03494263,-1.001801,9.152267,-32.50713,7.979492,193.1489,196.2313,25,-0.05863509,-0.06597183,-0.01605007,-0.2716649,0.001747814,0.03434148,0.0002515451,-0.003061935,0.001590665,0.0005725536,0.0002313319,-0.0006063958,172.17.160.76,10.175.81.193,5,stationary,2,2014-11-13 14:11:00.783,15,2014-11-13 13:57:29.604,0
2014-11-13 14:12:23.899,61511,2050.367,40.11403,-88.22443,225.0587,-1,-1,10,79.21869,1415909526,-0.0003356934,-0.03410339,-0.9983521,9.186722,-33.09286,7.811829,193.1281,196.2104,25,-0.05970434,-0.06596331,-0.01498454,-0.2716548,0.00177133,0.03435042,0.0002606563,0.00117211,-0.0005101754,0.0005795698,-0.0003548223,-0.002529352,172.17.160.76,10.175.81.193,5,stationary,2,2014-11-13 14:11:00.783,15,2014-11-13 13:57:29.604,0
2014-11-13 14:12:23.932,61512,2050.4,40.11403,-88.22443,225.0587,-1,-1,10,79.21869,1415909526,0.002243042,-0.0353241,-0.9993744,9.186722,-33.43742,7.610718,193.1181,196.2005,25,-0.05863269,-0.06704242,-0.0171172,-0.27163,0.001689308,0.0343173,-0.001872784,0.0001201486,0.0005551059,-0.0007422679,-0.0002658498,0.002369998,172.17.160.76,10.175.81.193,5,stationary,2,2014-11-13 14:11:00.783,15,2014-11-13 13:57:29.604,0
2014-11-13 14:12:23.966,61513,2050.433,40.11403,-88.22443,225.0587,-1,-1,10,79.21869,1415909526,0.0002593994,-0.03358459,-0.9989471,9.221176,-33.26514,8.247559,193.1024,196.1848,25,-0.05863588,-0.06703443,-0.01605567,-0.2716344,0.001691406,0.03433729,0.0002631721,0.001173269,-0.0005089259,0.0002169405,-0.001130883,-0.0005756376,172.17.160.76,10.175.81.193,5,stationary,2,2014-11-13 14:11:00.783,15,2014-11-13 13:57:29.604,0
2014-11-13 14:12:23.999,61514,2050.467,40.11403,-88.22443,225.0587,-1,-1,10,79.21869,1415909526,0.001602173,-0.03434753,-0.9971466,9.462364,-32.95505,8.348145,193.096,196.1784,25,-0.05969795,-0.06597929,-0.01710761,-0.2716452,0.001693184,0.03435807,0.002394191,0.0001093395,-0.0005225918,0.001893631,-0.0003166591,0.0005527962,172.17.160.76,10.175.81.193,5,stationary,2,2014-11-13 14:11:00.783,15,2014-11-13 13:57:29.604,0
2014-11-13 14:12:24.032,61515,2050.5,40.11403,-88.22443,225.0587,-1,-1,10,79.21869,1415909526,0.003295898,-0.03517151,-0.9997559,9.393456,-33.2996,8.616272,193.0905,196.1729,25,-0.05863509,-0.06597183,-0.01605007,-0.2716391,0.001676494,0.03433733,0.0002615167,0.0001098503,-0.0005147349,-0.001339812,0.000486585,0.0007824185,172.17.160.76,10.175.81.193,5,stationary,2,2014-11-13 14:11:00.783,15,2014-11-13 13:57:29.604,0
2014-11-13 14:12:24.066,61516,2050.533,40.11403,-88.22443,225.0587,-1,-1,10,79.21869,1415909526,0.003173828,-0.03552246,-0.9989471,9.496826,-33.26514,7.644287,193.0804,196.1628,25,-0.05862869,-0.0659878,-0.01817315,-0.27163,0.001724959,0.0343508,-0.0008047143,0.0001103772,-0.0005108145,0.001571958,-0.0008274613,-0.000347277,172.17.160.76,10.175.81.193,5,stationary,2,2014-11-13 14:11:00.783,15,2014-11-13 13:57:29.604,0
2014-11-13 14:12:24.099,61517,2050.567,40.11403,-88.22443,225.0587,-1,-1,10,79.21869,1415909526,0.001052856,-0.03485107,-1.001556,9.359024,-33.40296,7.77832,193.069,196.1513,25,-0.05969795,-0.06597929,-0.01710761,-0.271645,0.001731721,0.03436125,-0.0008015542,0.0001121654,-0.0005092138,-0.0001590424,-3.882469e-05,0.002322641,172.17.160.76,10.175.81.193,5,stationary,2,2014-11-13 14:11:00.783,15,2014-11-13 13:57:29.604,0
2014-11-13 14:12:24.132,61518,2050.6,40.11403,-88.22443,225.0587,-1,-1,10,79.21869,1415909526,0.00100708,-0.03433228,-0.9999084,9.462387,-32.88613,7.610779,193.0671,196.1495,25,-0.05970195,-0.06703389,-0.01605167,-0.2716705,0.001727049,0.03436746,-0.0008050707,0.0001195344,0.0005521725,-4.756188e-05,-0.0003988213,0.001696825,172.17.160.76,10.175.81.193,5,stationary,2,2014-11-13 14:11:00.783,15,2014-11-13 13:57:29.604,0
2014-11-13 14:12:24.166,61519,2050.634,40.11403,-88.22443,225.0587,-1,-1,10,79.21869,1415909526,0.00138855,-0.03475952,-0.9979248,9.496849,-33.47187,7.711426,193.0633,196.1457,25,-0.06076641,-0.06490816,-0.01603649,-0.2716542,0.001721008,0.0343589,0.0002573662,0.0001266034,0.001609614,-0.000712911,1.98688e-05,-0.0005001364,172.17.160.76,10.175.81.193,5,stationary,2,2014-11-13 14:11:00.783,15,2014-11-13 13:57:29.604,0
2014-11-13 14:12:24.199,61520,2050.667,40.11403,-88.22443,225.0587,-1,-1,10,79.21869,1415909526,0.003158569,-0.03334045,-0.999176,9.565758,-33.33405,7.577393,193.0611,196.1434,25,-0.05969875,-0.06704188,-0.01711321,-0.2716485,0.001741582,0.03435173,-0.0008034791,-0.0009518925,-0.0005151909,0.00262346,-0.0008570486,0.0001409434,172.17.160.76,10.175.81.193,5,stationary,2,2014-11-13 14:11:00.783,15,2014-11-13 13:57:29.604,0
2014-11-13 14:12:24.232,61521,2050.7,40.11403,-88.22443,225.0587,-1,-1,10,79.21869,1415909526,0.0009765625,-0.03451538,-0.9972992,9.496849,-33.26515,7.510376,193.0572,196.1396,25,-0.05863509,-0.06597183,-0.01605007,-0.2716759,0.001752008,0.03430866,0.0002657993,-0.000950834,-0.0005174452,6.482001e-05,0.000137498,-0.001230887,172.17.160.76,10.175.81.193,5,stationary,2,2014-11-13 14:11:00.783,15,2014-11-13 13:57:29.604,0
2014-11-13 14:12:24.266,61522,2050.733,40.11403,-88.22443,225.0587,-1,-1,10,79.21869,1415909526,0.0008850098,-0.03497314,-0.9986572,9.255661,-32.74832,7.543884,193.0495,196.1319,25,-0.05863269,-0.06704242,-0.0171172,-0.2716863,0.00173848,0.03437639,0.0002625699,-0.0009431583,0.0005440082,0.0006886953,-0.002190442,-0.0007754255,172.17.160.76,10.175.81.193,5,stationary,2,2014-11-13 14:11:00.783,15,2014-11-13 13:57:29.604,0
2014-11-13 14:12:24.299,61523,2050.767,40.11403,-88.22443,225.0587,-1,-1,10,79.21869,1415909526,0.001113892,-0.03436279,-1.000443,8.945557,-32.85169,8.180664,193.0332,196.1156,25,-0.05969875,-0.06704188,-0.01711321,-0.2716796,0.001705082,0.03438397,-0.0008029217,0.0001194836,0.0005534993,0.001134061,-0.000687498,0.002550787,172.17.160.76,10.175.81.193,5,stationary,2,2014-11-13 14:11:00.783,15,2014-11-13 13:57:29.604,0
2014-11-13 14:12:24.332,61524,2050.8,40.11403,-88.22443,225.0587,-1,-1,10,79.21869,1415909526,0.003921509,-0.03399658,-0.9989624,8.980003,-32.95506,8.28125,193.0231,196.1054,25,-0.05969795,-0.06597929,-0.01710761,-0.2716787,0.00170253,0.03435315,-0.0008033339,0.000119058,0.0005534006,-0.0005876328,-1.640179e-05,-0.001033965,172.17.160.76,10.175.81.193,5,stationary,2,2014-11-13 14:11:00.783,15,2014-11-13 13:57:29.604,0
2014-11-13 14:12:24.366,61525,2050.833,40.11403,-88.22443,225.0587,-1,-1,10,79.21869,1415909526,0.001373291,-0.03509521,-0.9985199,8.807724,-33.05843,8.851074,192.9941,196.0764,25,-0.05969795,-0.06597929,-0.01710761,-0.2716899,0.001748309,0.03432147,-0.001866643,0.0001113831,-0.0005042464,0.00217423,0.0003181497,0.0004471464,172.17.160.76,10.175.81.193,5,stationary,2,2014-11-13 14:11:00.783,15,2014-11-13 13:57:29.604,0
2014-11-13 14:12:24.399,61526,2050.867,40.11403,-88.22443,225.0587,-1,-1,10,79.21869,1415909526,0.0007476807,-0.03379822,-0.9997711,9.496841,-32.98952,8.381836,192.9855,196.0678,25,-0.05970115,-0.06597129,-0.01604608,-0.2717067,0.001808273,0.03434544,0.0002711303,-0.0009591524,-0.001577736,0.001748092,-0.0005581625,0.00154485,172.17.160.76,10.175.81.193,5,stationary,2,2014-11-13 14:11:00.783,15,2014-11-13 13:57:29.604,0
2014-11-13 14:12:24.432,61527,2050.9,40.11403,-88.22443,225.0587,-1,-1,10,79.21869,1415909526,0.002883911,-0.03413391,-0.9978485,9.738022,-32.6105,7.879089,192.9907,196.073,25,-0.05863588,-0.06703443,-0.01605567,-0.2717227,0.001814214,0.03433438,0.0013376,0.0001026033,-0.001576241,0.001925259,-0.0002793004,-0.0001485067,172.17.160.76,10.175.81.193,5,stationary,2,2014-11-13 14:11:00.783,15,2014-11-13 13:57:29.604,0
2014-11-13 14:12:24.466,61528,2050.933,40.11403,-88.22443,225.0587,-1,-1,10,79.21869,1415909526,0.0003356934,-0.03527832,-1.001068,10.42713,-32.26595,7.812073,193.0238,196.1062,25,-0.05969795,-0.06597929,-0.01710761,-0.271734,0.001855322,0.0343315,-0.0008005268,0.001182036,0.0005603061,-0.0005419718,0.001014825,0.001102737,172.17.160.76,10.175.81.193,5,stationary,2,2014-11-13 14:11:00.783,15,2014-11-13 13:57:29.604,0
2014-11-13 14:12:24.499,61529,2050.967,40.11403,-88.22443,225.0587,-1,-1,10,79.21869,1415909526,0.002548218,-0.0342865,-1.000336,10.11703,-32.71386,7.912598,193.0345,196.1169,25,-0.05863588,-0.06703443,-0.01605567,-0.2717228,0.001860381,0.03436028,0.001330575,0.0001179811,0.0005466242,-0.001523588,-0.0009248027,-0.001660101,172.17.160.76,10.175.81.193,5,stationary,2,2014-11-13 14:11:00.783,15,2014-11-13 13:57:29.604,0
2014-11-13 14:12:24.532,61530,2051,40.11403,-88.22443,225.0587,-1,-1,10,79.21869,1415909526,0.001052856,-0.03436279,-0.9994659,9.806931,-33.02396,8.214294,193.0456,196.1279,25,-0.05863189,-0.06597982,-0.01711161,-0.2717319,0.001809613,0.03436602,0.0002705105,0.0001019775,-0.001572547,3.77701e-05,0.0005305231,0.001177929,172.17.160.76,10.175.81.193,5,stationary,2,2014-11-13 14:11:00.783,15,2014-11-13 13:57:29.604,0
2014-11-13 14:12:24.566,61531,2051.033,40.11403,-88.22443,225.0587,-1,-1,10,79.21869,1415909526,0.0008239746,-0.03465271,-1.000092,9.496826,-33.54079,8.180725,193.0401,196.1224,25,-0.05756423,-0.06811354,-0.01818833,-0.2717432,0.0018647,0.03434719,0.0002696716,-0.0009516893,-0.0005148463,0.0007761709,-5.287172e-05,0.001392098,172.17.160.76,10.175.81.193,5,stationary,2,2014-11-13 14:11:00.783,15,2014-11-13 13:57:29.604,0
2014-11-13 14:12:24.599,61532,2051.067,40.11403,-88.22443,225.0587,-1,-1,10,79.21869,1415909526,0.000793457,-0.03575134,-0.9994812,9.772461,-33.19624,8.784119,193.048,196.1304,25,-0.05756982,-0.06703496,-0.01605966,-0.2717627,0.00179152,0.03435877,0.002401383,-0.0009533436,-0.0005229283,-0.0009664872,-0.0003007041,-0.0006833609,172.17.160.76,10.175.81.193,5,stationary,2,2014-11-13 14:11:00.783,15,2014-11-13 13:57:29.604,0
2014-11-13 14:12:24.632,61533,2051.1,40.11403,-88.22443,225.0587,-1,-1,10,79.21869,1415909526,0.001281738,-0.03440857,-0.9996796,9.84137,-33.05842,9.052246,193.0518,196.1342,25,-0.05650695,-0.0670275,-0.01500212,-0.2717562,0.001751881,0.03442573,-0.0007961271,0.0001103587,-0.0005054459,-0.0009573853,-0.001332414,-7.524166e-05,172.17.160.76,10.175.81.193,5,stationary,2,2014-11-13 14:11:00.783,15,2014-11-13 13:57:29.604,0
2014-11-13 14:12:24.666,61534,2051.134,40.11403,-88.22443,225.0587,-1,-1,10,79.21869,1415909526,0.004592896,-0.03482056,-1.001099,10.28928,-32.67941,9.085754,193.0742,196.1565,25,-0.05969795,-0.06597929,-0.01710761,-0.2717406,0.001749531,0.03446699,-0.0007963965,0.0001100653,-0.0005055489,-0.000466753,5.160133e-05,-0.000275023,172.17.160.76,10.175.81.193,5,stationary,2,2014-11-13 14:11:00.783,15,2014-11-13 13:57:29.604,0
2014-11-13 14:12:24.699,61535,2051.167,40.11403,-88.22443,225.0587,-1,-1,10,79.21869,1415909526,0.001815796,-0.034729,-0.997406,10.01365,-32.74832,8.884644,193.0877,196.17,25,-0.06076721,-0.06597076,-0.01604208,-0.2717473,0.001826879,0.03446056,0.001332001,0.000116724,0.0005478357,0.0003409543,-0.0009771647,-0.001770301,172.17.160.76,10.175.81.193,5,stationary,2,2014-11-13 14:11:00.783,15,2014-11-13 13:57:29.604,0
2014-11-13 14:12:24.732,61536,2051.2,40.11403,-88.22443,225.0587,-1,-1,10,79.21869,1415909526,0.003326416,-0.03436279,-0.9994812,9.806923,-32.74832,8.616516,193.092,196.1744,25,-0.05863509,-0.06597183,-0.01605007,-0.2717256,0.001799839,0.03442011,0.001335104,-0.0009450166,0.0005440247,-0.0008222099,0.001210186,-0.0002734976,172.17.160.76,10.175.81.193,5,stationary,2,2014-11-13 14:11:00.783,15,2014-11-13 13:57:29.604,0
2014-11-13 14:12:24.766,61537,2051.233,40.11403,-88.22443,225.0587,-1,-1,10,79.21869,1415909526,0.002471924,-0.03382874,-0.9990234,9.669106,-33.36852,8.415466,193.0915,196.1739,25,-0.05757062,-0.06809756,-0.01606525,-0.2717266,0.001854373,0.03439857,-0.0007942701,-0.0009520889,-0.0005096312,0.001473141,2.89944e-05,-7.4492e-05,172.17.160.76,10.175.81.193,5,stationary,2,2014-11-13 14:11:00.783,15,2014-11-13 13:57:29.604,0
2014-11-13 14:12:24.799,61538,2051.267,40.11403,-88.22443,225.0587,-1,-1,10,79.21869,1415909526,0.002441406,-0.0329895,-0.9968414,9.875832,-33.29961,7.812134,193.0956,196.178,25,-0.05969795,-0.06597929,-0.01710761,-0.2717203,0.001791818,0.03439525,-0.0007970521,0.0001180166,0.0005574001,0.0006811669,0.0005597324,0.0003834999,172.17.160.76,10.175.81.193,5,stationary,2,2014-11-13 14:11:00.783,15,2014-11-13 13:57:29.604,0
2014-11-13 14:12:24.832,61539,2051.3,40.11403,-88.22443,225.0587,-1,-1,10,79.21869,1415909526,0.001571655,-0.03361511,-0.998291,9.910278,-33.19624,7.644531,193.0995,196.1819,25,-0.05863588,-0.06703443,-0.01605567,-0.2717043,0.00182876,0.03429234,-0.0007976017,0.0001178267,0.0005573116,0.00215486,0.0006705111,0.0004327428,172.17.160.76,10.175.81.193,5,stationary,2,2014-11-13 14:11:00.783,15,2014-11-13 13:57:29.604,0
2014-11-13 14:12:24.866,61540,2051.333,40.11403,-88.22443,225.0587,-1,-1,10,79.21869,1415909526,0.002304077,-0.03379822,-0.999527,9.358994,-32.64495,7.644531,193.0972,196.1795,25,-0.05969875,-0.06704188,-0.01711321,-0.2717034,0.001824159,0.0342334,0.0002701516,-0.0009539057,-0.0005139801,-0.0005718683,-0.0004565165,-0.001014814,172.17.160.76,10.175.81.193,5,stationary,2,2014-11-13 14:11:00.783,15,2014-11-13 13:57:29.604,0
2014-11-13 14:12:24.899,61541,2051.367,40.11403,-88.22443,225.0587,-1,-1,10,79.21869,1415909526,0.003326416,-0.03494263,-0.9982758,9.048904,-32.81723,8.0802,193.0881,196.1705,25,-0.05863189,-0.06597982,-0.01711161,-0.2717085,0.001829422,0.0341821,-0.000795271,-0.0009445665,0.000553411,0.0004757247,0.0003772286,-0.0001128011,172.17.160.76,10.175.81.193,5,stationary,2,2014-11-13 14:11:00.783,15,2014-11-13 13:57:29.604,0
2014-11-13 14:12:24.933,61542,2051.4,40.11403,-88.22443,225.0587,-1,-1,10,79.21869,1415909526,0.002929688,-0.03587341,-0.9998627,8.945541,-32.92059,8.113708,193.0706,196.153,25,-0.05863428,-0.06490923,-0.01604448,-0.2717085,0.001839268,0.03419459,0.0002729862,-0.00201598,-0.0005178152,0.001488224,-0.0007547004,0.001137975,172.17.160.76,10.175.81.193,5,stationary,2,2014-11-13 14:11:00.783,15,2014-11-13 13:57:29.604,0
2014-11-13 14:12:24.966,61543,2051.433,40.11403,-88.22443,225.0587,-1,-1,10,79.21869,1415909526,0.001190186,-0.0344696,-0.9980469,9.496826,-33.19624,8.247803,193.0585,196.1409,25,-0.05970115,-0.06597129,-0.01604608,-0.2717369,0.001983389,0.03416435,0.001340767,0.001171143,-0.0005051967,-0.0003190225,0.0009698439,0.0002689816,172.17.160.76,10.175.81.193,5,stationary,2,2014-11-13 14:11:00.783,15,2014-11-13 13:57:29.604,0
2014-11-13 14:12:24.998,61544,2051.467,40.11403,-88.22443,225.0587,-1,-1,10,79.21869,1415909526,0.001419067,-0.03399658,-1.003036,9.772461,-33.26515,8.113708,193.0601,196.1425,25,-0.05863269,-0.06704242,-0.0171172,-0.2717302,0.001971384,0.0341924,-0.0007954023,0.0001172084,0.0005586734,-0.0007800448,-0.000283869,0.00136668,172.17.160.76,10.175.81.193,5,stationary,2,2014-11-13 14:11:00.783,15,2014-11-13 13:57:29.604,0
2014-11-13 14:12:25.032,61545,2051.5,40.11403,-88.22443,225.0587,-1,-1,10,79.21869,1415909526,0.0009460449,-0.0349884,-0.9991455,10.117,-33.12733,8.247803,193.0679,196.1503,25,-0.05863189,-0.06597982,-0.01711161,-0.2717272,0.001895566,0.03418048,0.0002685347,-0.002009344,0.0005433716,-0.002138598,0.0006350082,-8.235129e-05,172.17.160.76,10.175.81.193,5,stationary,2,2014-11-13 14:11:00.783,15,2014-11-13 13:57:29.604,0
2014-11-13 14:12:25.066,61546,2051.533,40.11403,-88.22443,225.0587,-1,-1,10,79.21869,1415909526,6.103516e-05,-0.0335083,-0.9990845,10.08254,-33.02397,7.543884,193.0883,196.1707,25,-0.05970115,-0.06597129,-0.01604608,-0.2717274,0.001918779,0.03420861,0.002406294,0.0001156763,0.000548717,-0.00097161,-0.0007864638,0.0002675949,172.17.160.76,10.175.81.193,5,stationary,2,2014-11-13 14:11:00.783,15,2014-11-13 13:57:29.604,0
2014-11-13 14:12:25.099,61547,2051.567,40.11403,-88.22443,225.0587,-1,-1,10,79.21869,1415909526,0.002410889,-0.03398132,-1.001495,9.910271,-33.19624,7.309265,193.0924,196.1748,25,-0.05863269,-0.06704242,-0.0171172,-0.2717383,0.001937034,0.0341706,-0.0007939176,-0.002008176,0.0005494113,-0.001874867,0.000655646,0.0003298944,172.17.160.76,10.175.81.193,5,stationary,2,2014-11-13 14:11:00.783,15,2014-11-13 13:57:29.604,0
2014-11-13 14:12:25.132,61548,2051.6,40.11403,-88.22443,225.0587,-1,-1,10,79.21869,1415909526,0.002944946,-0.03450012,-0.9952698,10.15145,-33.43744,7.409851,193.107,196.1893,25,-0.06076242,-0.06385355,-0.01709243,-0.2717737,0.001928623,0.03418675,0.001342644,0.0001074199,-0.0005090417,0.0004833938,0.0001987649,-0.00208153,172.17.160.76,10.175.81.193,5,stationary,2,2014-11-13 14:11:00.783,15,2014-11-13 13:57:29.604,0
2014-11-13 14:12:25.166,61549,2051.634,40.11403,-88.22443,225.0587,-1,-1,10,79.21869,1415909526,0.002075195,-0.0335083,-1.00116,9.841362,-33.67862,7.845642,193.1112,196.1935,25,-0.05970115,-0.06597129,-0.01604608,-0.2717855,0.002005948,0.03417237,0.0002728683,0.0001157367,0.0005563459,0.001962509,-0.0003954402,0.0002381453,172.17.160.76,10.175.81.193,5,stationary,2,2014-11-13 14:11:00.783,15,2014-11-13 13:57:29.604,0
2014-11-13 14:12:25.199,61550,2051.667,40.11403,-88.22443,225.0587,-1,-1,10,79.21869,1415909526,0.003387451,-0.03466797,-0.9968567,10.22038,-33.50634,7.67804,193.1185,196.2009,25,-0.05969875,-0.06704188,-0.01711321,-0.2717893,0.002003973,0.03413987,-0.0007856407,0.001171591,-0.0004933331,7.239149e-05,0.0006249371,-0.001744383,172.17.160.76,10.175.81.193,5,stationary,2,2014-11-13 14:11:00.783,15,2014-11-13 13:57:29.604,0
2014-11-13 14:12:25.232,61551,2051.7,40.11403,-88.22443,225.0587,-1,-1,10,79.21869,1415909526,0.002670288,-0.03485107,-0.9964752,9.738007,-33.02397,7.409912,193.122,196.2043,25,-0.05969795,-0.06597929,-0.01710761,-0.2717938,0.002005101,0.03416248,-0.001850456,-0.0009615978,-0.00156221,-0.0002644275,-0.00072576,-0.002614909,172.17.160.76,10.175.81.193,5,stationary,2,2014-11-13 14:11:00.783,15,2014-11-13 13:57:29.604,0
2014-11-13 14:12:25.266,61552,2051.733,40.11403,-88.22443,225.0587,-1,-1,10,79.21869,1415909526,0.00289917,-0.03527832,-1.001068,10.0481,-32.36932,7.443359,193.1359,196.2182,25,-0.05863349,-0.06810502,-0.01712279,-0.2717878,0.001974454,0.03417787,0.0002749869,-0.000947095,0.0005527727,0.0001629309,6.784142e-06,-0.0004333666,172.17.160.76,10.175.81.193,5,stationary,2,2014-11-13 14:11:00.783,15,2014-11-13 13:57:29.604,0
2014-11-13 14:12:25.299,61553,2051.767,40.11403,-88.22443,225.0587,-1,-1,10,79.21869,1415909526,0.0004425049,-0.03460693,-1.000458,9.462364,-32.47268,7.812134,193.1352,196.2176,25,-0.05863509,-0.06597183,-0.01605007,-0.2717879,0.001985841,0.03420387,0.0002773021,-0.002017852,-0.0005144246,0.0009144921,-0.00108112,-0.001654981,172.17.160.76,10.175.81.193,5,stationary,2,2014-11-13 14:11:00.783,15,2014-11-13 13:57:29.604,0
2014-11-13 14:12:25.332,61554,2051.8,40.11403,-88.22443,225.0587,-1,-1,10,79.21869,1415909526,0.002090454,-0.03495789,-0.9981384,9.083359,-32.85168,8.046753,193.1241,196.2065,25,-0.05969476,-0.06598727,-0.01816915,-0.2717858,0.001953174,0.03427367,-0.0007865748,0.001169798,-0.000493779,-0.001509521,-0.0003399765,-0.001046955,172.17.160.76,10.175.81.193,5,stationary,2,2014-11-13 14:11:00.783,15,2014-11-13 13:57:29.604,0
2014-11-13 14:12:25.366,61555,2051.833,40.11403,-88.22443,225.0587,-1,-1,10,79.21869,1415909526,0.001586914,-0.03445435,-1.000061,8.807724,-33.12733,8.31488,193.0989,196.1813,25,-0.06076801,-0.06703337,-0.01604768,-0.271801,0.00197091,0.03427669,-0.0007828525,0.001171025,-0.0004914324,0.0001207029,-0.0006879031,0.001272243,172.17.160.76,10.175.81.193,5,stationary,2,2014-11-13 14:11:00.783,15,2014-11-13 13:57:29.604,0
2014-11-13 14:12:25.399,61556,2051.867,40.11403,-88.22443,225.0587,-1,-1,10,79.21869,1415909526,0.001022339,-0.03378296,-0.9971313,9.117821,-33.16179,8.281311,193.0894,196.1718,25,-0.05863588,-0.06703443,-0.01605567,-0.271778,0.001936996,0.03426506,0.001344806,0.0001147236,0.0005563734,3.252583e-05,-0.0006842748,-0.001031369,172.17.160.76,10.175.81.193,5,stationary,2,2014-11-13 14:11:00.783,15,2014-11-13 13:57:29.604,0
2014-11-13 14:12:25.432,61557,2051.9,40.11403,-88.22443,225.0587,-1,-1,10,79.21869,1415909526,0.002944946,-0.03385925,-1.000381,9.393471,-33.16179,8.348328,193.077,196.1593,25,-0.05862949,-0.0670504,-0.01817874,-0.2717756,0.001875142,0.03426095,0.0002808814,-0.0009558592,-0.0005068185,-0.0008517015,0.000471295,0.002280046,172.17.160.76,10.175.81.193,5,stationary,2,2014-11-13 14:11:00.783,15,2014-11-13 13:57:29.604,0
2014-11-13 14:12:25.466,61558,2051.933,40.11403,-88.22443,225.0587,-1,-1,10,79.21869,1415909526,0.003204346,-0.0330658,-0.9977875,9.634659,-33.12733,8.314758,193.075,196.1574,25,-0.05969715,-0.06491669,-0.01710202,-0.2717964,0.001879953,0.03429093,0.0002812469,0.0001062911,-0.0005013605,8.953664e-05,-1.754523e-05,0.001119342,172.17.160.76,10.175.81.193,5,stationary,2,2014-11-13 14:11:00.783,15,2014-11-13 13:57:29.604,0
2014-11-13 14:12:25.499,61559,2051.967,40.11403,-88.22443,225.0587,-1,-1,10,79.21869,1415909526,0.00189209,-0.03399658,-1.001129,9.97921,-33.12733,8.381836,193.0806,196.163,25,-0.05969795,-0.06597929,-0.01710761,-0.2717917,0.00190889,0.03430036,0.0002769001,-0.000948582,0.0005544592,-0.0007786155,-0.00267841,0.001469916,172.17.160.76,10.175.81.193,5,stationary,2,2014-11-13 14:11:00.783,15,2014-11-13 13:57:29.604,0
2014-11-13 14:12:25.532,61560,2052,40.11403,-88.22443,225.0587,-1,-1,10,79.21869,1415909526,0.0006256104,-0.03443909,-0.9989929,10.11703,-33.33405,8.247803,193.0917,196.1741,25,-0.05969795,-0.06597929,-0.01710761,-0.2717786,0.001857113,0.03429683,0.0002799864,-0.002009866,0.0005511286,-0.002191713,-0.0005609738,0.003865764,172.17.160.76,10.175.81.193,5,stationary,2,2014-11-13 14:11:00.783,15,2014-11-13 13:57:29.604,0
2014-11-13 14:12:25.566,61561,2052.033,40.11403,-88.22443,225.0587,-1,-1,10,79.21869,1415909526,0.0009307861,-0.03387451,-0.9964142,9.97921,-33.12732,8.247803,193.0987,196.1811,25,-0.05863269,-0.06704242,-0.0171172,-0.2717924,0.001823323,0.03431717,0.0002804327,-0.0009479356,0.0005565924,-0.0007236161,-0.0007084854,-4.112119e-05,172.17.160.76,10.175.81.193,5,stationary,2,2014-11-13 14:11:00.783,15,2014-11-13 13:57:29.604,0
2014-11-13 14:12:25.599,61562,2052.067,40.11403,-88.22443,225.0587,-1,-1,10,79.21869,1415909526,0.0025177,-0.03385925,-0.9990692,9.703568,-32.71385,8.247803,193.1014,196.1838,25,-0.05863668,-0.06809703,-0.01606126,-0.2717961,0.001795045,0.0343043,0.000283381,-0.0009563094,-0.0005050061,-0.000863202,0.000423064,0.00299587,172.17.160.76,10.175.81.193,5,stationary,2,2014-11-13 14:11:00.783,15,2014-11-13 13:57:29.604,0
2014-11-13 14:12:25.632,61563,2052.1,40.11403,-88.22443,225.0587,-1,-1,10,79.21869,1415909526,0.002807617,-0.03343201,-1.001801,9.806931,-32.33484,7.812012,193.1151,196.1974,25,-0.05969875,-0.06704188,-0.01711321,-0.2717986,0.001869016,0.03426712,-0.0007864815,-0.0009477954,0.0005603741,0.0006497821,0.000401159,0.0003419803,172.17.160.76,10.175.81.193,5,stationary,2,2014-11-13 14:11:00.783,15,2014-11-13 13:57:29.604,0
2014-11-13 14:12:25.666,61564,2052.134,40.11403,-88.22443,225.0587,-1,-1,10,79.21869,1415909526,0.000289917,-0.03463745,-0.9986877,9.806931,-33.02394,7.812012,193.1224,196.2047,25,-0.05863668,-0.06809703,-0.01606126,-0.2718044,0.001887773,0.03425637,0.001346056,0.0001135905,0.0005578873,0.0009209528,0.0008176618,-0.00238901,172.17.160.76,10.175.81.193,5,stationary,2,2014-11-13 14:11:00.783,15,2014-11-13 13:57:29.604,0
2014-11-13 14:12:25.699,61565,2052.167,40.11403,-88.22443,225.0587,-1,-1,10,79.21869,1415909526,0.001907349,-0.03417969,-1.000748,9.772476,-33.47187,7.84552,193.1222,196.2046,25,-0.05970195,-0.06703389,-0.01605167,-0.2718073,0.001849069,0.03426905,0.0002839584,0.0001151193,0.0005639847,-0.001558065,-0.000375114,0.0007234211,172.17.160.76,10.175.81.193,5,stationary,2,2014-11-13 14:11:00.783,15,2014-11-13 13:57:29.604,0
2014-11-13 14:12:25.732,61566,2052.2,40.11403,-88.22443,225.0587,-1,-1,10,79.21869,1415909526,0.003616333,-0.03453064,-1.001923,9.910294,-33.6786,8.44873,193.1213,196.2037,25,-0.05863509,-0.06597183,-0.01605007,-0.2717914,0.001869466,0.03425403,-0.0007823405,0.0001155064,0.0005679078,0.001366495,-0.000329083,-0.002755106,172.17.160.76,10.175.81.193,5,stationary,2,2014-11-13 14:11:00.783,15,2014-11-13 13:57:29.604,0
2014-11-13 14:12:25.766,61567,2052.233,40.11403,-88.22443,225.0587,-1,-1,10,79.21869,1415909526,0.003295898,-0.03286743,-0.9974365,10.01366,-33.09285,8.147156,193.1322,196.2145,25,-0.05863588,-0.06703443,-0.01605567,-0.2718016,0.001915451,0.03424761,0.0002864098,0.0001065169,-0.0004977948,0.001702007,-0.0002897202,-0.002510833,172.17.160.76,10.175.81.193,5,stationary,2,2014-11-13 14:11:00.783,15,2014-11-13 13:57:29.604,0
2014-11-13 14:12:25.799,61568,2052.267,40.11403,-88.22443,225.0587,-1,-1,10,79.21869,1415909526,0.002151489,-0.03527832,-1.001221,10.18594,-32.64493,8.247681,193.1431,196.2254,25,-0.05863269,-0.06704242,-0.0171172,-0.2718182,0.00195079,0.03422237,-0.0007801266,0.0001068238,-0.0004939241,0.0006443476,-0.0005896107,0.0003433564,172.17.160.76,10.175.81.193,5,stationary,2,2014-11-13 14:11:00.783,15,2014-11-13 13:57:29.604,0
2014-11-13 14:12:25.832,61569,2052.3,40.11403,-88.22443,225.0587,-1,-1,10,79.21869,1415909526,0.002883911,-0.03398132,-0.9962616,9.806931,-32.33483,8.080078,193.1592,196.2416,25,-0.05969795,-0.06597929,-0.01710761,-0.2718319,0.001893196,0.03426371,0.0002841235,-0.00201951,-0.000509197,-0.002044672,1.628067e-05,-0.0002835586,172.17.160.76,10.175.81.193,5,stationary,2,2014-11-13 14:11:00.783,15,2014-11-13 13:57:29.604,0
2014-11-13 14:12:25.866,61570,2052.333,40.11403,-88.22443,225.0587,-1,-1,10,79.21869,1415909526,0.002914429,-0.03500366,-0.9987488,9.255653,-32.54156,8.013062,193.1579,196.2403,25,-0.05969875,-0.06704188,-0.01711321,-0.2718215,0.001919543,0.03423112,0.0002862748,0.000114876,0.0005655406,0.0009654942,0.000243111,0.003150735,172.17.160.76,10.175.81.193,5,stationary,2,2014-11-13 14:11:00.783,15,2014-11-13 13:57:29.604,0
2014-11-13 14:12:25.899,61571,2052.367,40.11403,-88.22443,225.0587,-1,-1,10,79.21869,1415909526,0.001617432,-0.03421021,-1.000961,9.117821,-32.81721,7.946045,193.1494,196.2317,25,-0.05863269,-0.06704242,-0.0171172,-0.2718359,0.001883697,0.03422913,0.001354248,-0.0009568128,-0.0005057143,-0.0007229248,-0.0003997498,0.004814079,172.17.160.76,10.175.81.193,5,stationary,2,2014-11-13 14:11:00.783,15,2014-11-13 13:57:29.604,0
2014-11-13 14:12:25.932,61572,2052.4,40.11403,-88.22443,225.0587,-1,-1,10,79.21869,1415909526,0.002426147,-0.03442383,-0.996933,9.531273,-33.29958,7.744934,193.1369,196.2193,25,-0.05756822,-0.06490976,-0.01604847,-0.2718346,0.001851328,0.03420359,0.0002878567,-0.0009565728,-0.000501768,-0.001331445,0.00116164,0.001839549,172.17.160.76,10.175.81.193,5,stationary,2,2014-11-13 14:11:00.783,15,2014-11-13 13:57:29.604,0
2014-11-13 14:12:25.966,61573,2052.433,40.11403,-88.22443,225.0587,-1,-1,10,79.21869,1415909526,0.00378418,-0.03512573,-1.001129,9.910278,-33.40295,7.912537,193.1356,196.218,25,-0.05863269,-0.06704242,-0.0171172,-0.2718486,0.001841685,0.03421293,-0.0007779428,0.0001059407,-0.0004923089,0.0005855412,-0.0002175748,0.002480117,172.17.160.76,10.175.81.193,5,stationary,2,2014-11-13 14:11:00.783,15,2014-11-13 13:57:29.604,0
2014-11-13 14:12:25.998,61574,2052.467,40.11403,-88.22443,225.0587,-1,-1,10,79.21869,1415909526,0.001113892,-0.03346252,-0.9979095,10.01365,-33.16176,7.878967,193.141,196.2233,25,-0.05863509,-0.06597183,-0.01605007,-0.2718524,0.001822127,0.03422836,-0.0007778983,-0.0009478061,0.000565562,-0.001683729,-0.0006904318,0.0007553812,172.17.160.76,10.175.81.193,5,stationary,2,2014-11-13 14:11:00.783,15,2014-11-13 13:57:29.604,0
2014-11-13 14:12:26.032,61575,2052.5,40.11403,-88.22443,225.0587,-1,-1,10,79.21869,1415909526,0.002304077,-0.03462219,-0.9989471,9.669106,-33.16176,7.879028,193.1471,196.2294,25,-0.06076162,-0.06704934,-0.01817075,-0.2718461,0.001797896,0.03426898,0.0002890026,0.000114032,0.0005671306,-0.001201747,-0.001885797,0.002020514,172.17.160.76,10.175.81.193,5,stationary,2,2014-11-13 14:11:00.783,15,2014-11-13 13:57:29.604,0
2014-11-13 14:12:26.066,61576,2052.533,40.11403,-88.22443,225.0587,-1,-1,10,79.21869,1415909526,0.002288818,-0.03463745,-0.9995575,9.565735,-32.71385,7.778503,193.1457,196.2281,25,-0.06183407,-0.06703283,-0.01604368,-0.2718727,0.001817717,0.03426006,-0.0007777218,0.0001140884,0.0005709328,0.001753907,-3.314378e-05,0.001318879,172.17.160.76,10.175.81.193,5,stationary,2,2014-11-13 14:11:00.783,15,2014-11-13 13:57:29.604,0
2014-11-13 14:12:26.099,61577,2052.567,40.11403,-88.22443,225.0587,-1,-1,10,79.21869,1415909526,0.004104614,-0.03443909,-0.999939,9.393456,-32.81721,7.610901,193.1421,196.2245,25,-0.05969955,-0.06810448,-0.0171188,-0.2718843,0.001873534,0.03426715,0.00029128,0.0001054756,-0.0004947073,0.002171146,-0.0005906324,-0.001611154,172.17.160.76,10.175.81.193,5,stationary,2,2014-11-13 14:11:00.783,15,2014-11-13 13:57:29.604,0
2014-11-13 14:12:26.132,61578,2052.6,40.11403,-88.22443,225.0587,-1,-1,10,79.21869,1415909526,0.003128052,-0.03308105,-0.9984589,9.324547,-32.6794,7.879028,193.1323,196.2146,25,-0.05863588,-0.06703443,-0.01605567,-0.2718949,0.00190377,0.03426345,-0.0007783407,0.0001137601,0.0005707174,0.002201963,-0.0001823348,-0.0005277107,172.17.160.76,10.175.81.193,5,stationary,2,2014-11-13 14:11:00.783,15,2014-11-13 13:57:29.604,0
2014-11-13 14:12:26.166,61579,2052.634,40.11403,-88.22443,225.0587,-1,-1,10,79.21869,1415909526,0.001968384,-0.03492737,-0.999527,9.290092,-33.33404,7.845459,193.1168,196.1992,25,-0.05863509,-0.06597183,-0.01605007,-0.2718957,0.001924139,0.03423424,0.0002918302,0.0001147833,0.0005686766,0.001205041,0.001146497,0.0009533534,172.17.160.76,10.175.81.193,5,stationary,2,2014-11-13 14:11:00.783,15,2014-11-13 13:57:29.604,0
2014-11-13 14:12:26.199,61580,2052.667,40.11403,-88.22443,225.0587,-1,-1,10,79.21869,1415909526,0.003143311,-0.03459167,-0.9986115,9.221176,-33.26513,8.113586,193.1084,196.1908,25,-0.05862869,-0.0659878,-0.01817315,-0.2718942,0.00192722,0.03425178,-0.0007744679,0.0001148758,0.0005725538,-0.000659609,0.0006604866,0.001120594,172.17.160.76,10.175.81.193,5,stationary,2,2014-11-13 14:11:00.783,15,2014-11-13 13:57:29.604,0
2014-11-13 14:12:26.232,61581,2052.7,40.11403,-88.22443,225.0587,-1,-1,10,79.21869,1415909526,0.0006256104,-0.0345459,-1.000214,9.393448,-33.43741,8.214111,193.0948,196.1772,25,-0.05756662,-0.06704295,-0.0171212,-0.2718937,0.001945234,0.0342421,0.0002912846,0.0001140401,0.0005684574,0.001199219,-0.0003562673,0.0008004556,172.17.160.76,10.175.81.193,5,stationary,2,2014-11-13 14:11:00.783,15,2014-11-13 13:57:29.604,0
2014-11-13 14:12:26.266,61582,2052.733,40.11403,-88.22443,225.0587,-1,-1,10,79.21869,1415909526,0.002426147,-0.0340271,-0.9997406,9.703537,-33.47187,8.381775,193.0935,196.1758,25,-0.05969715,-0.06491669,-0.01710202,-0.2718969,0.001903434,0.03426363,0.0002901121,-0.0009491866,0.0005627346,0.0001728793,0.0001382767,0.001669549,172.17.160.76,10.175.81.193,5,stationary,2,2014-11-13 14:11:00.783,15,2014-11-13 13:57:29.604,0
2014-11-13 14:12:26.299,61583,2052.767,40.11403,-88.22443,225.0587,-1,-1,10,79.21869,1415909526,0.002456665,-0.03414917,-0.9986115,9.841354,-33.60969,8.381775,193.0941,196.1765,25,-0.05863189,-0.06597982,-0.01711161,-0.2719056,0.001880949,0.03420271,-0.000771615,0.001168146,-0.0004836833,-0.00158993,0.001359132,0.0006035618,172.17.160.76,10.175.81.193,5,stationary,2,2014-11-13 14:11:00.783,15,2014-11-13 13:57:29.604,0
2014-11-13 14:12:26.332,61584,2052.8,40.11403,-88.22443,225.0587,-1,-1,10,79.21869,1415909526,0.001068115,-0.03594971,-1.002869,9.841354,-33.60969,8.04657,193.0966,196.1789,25,-0.05863349,-0.06810502,-0.01712279,-0.2719053,0.001887526,0.0341742,-0.0007719571,-0.0009472787,0.0005685019,-0.0001926969,0.0005219176,-0.002920256,172.17.160.76,10.175.81.193,5,stationary,2,2014-11-13 14:11:00.783,15,2014-11-13 13:57:29.604,0
2014-11-13 14:12:26.366,61585,2052.833,40.11403,-88.22443,225.0587,-1,-1,10,79.21869,1415909526,0.00138855,-0.0324707,-0.9972382,9.703537,-33.19621,7.979492,193.0992,196.1816,25,-0.05969875,-0.06704188,-0.01711321,-0.2719139,0.001847428,0.03419133,-0.0007708414,0.001177181,0.0005795055,-0.0007019383,-0.0002544208,-0.001227041,172.17.160.76,10.175.81.193,5,stationary,2,2014-11-13 14:11:00.783,15,2014-11-13 13:57:29.604,0
2014-11-13 14:12:26.399,61586,2052.867,40.11403,-88.22443,225.0587,-1,-1,10,79.21869,1415909526,0.002838135,-0.03414917,-0.9989624,9.531265,-32.95503,7.677856,193.0979,196.1802,25,-0.05970115,-0.06597129,-0.01604608,-0.2719221,0.001782951,0.0341371,-0.0007697481,-0.0009565815,-0.0004933102,-0.0005917258,0.0004848413,-0.0001111803,172.17.160.76,10.175.81.193,5,stationary,2,2014-11-13 14:11:00.783,15,2014-11-13 13:57:29.604,0
2014-11-13 14:12:26.432,61587,2052.9,40.11403,-88.22443,225.0587,-1,-1,10,79.21869,1415909526,0.0009613037,-0.03323364,-0.9976501,9.393448,-33.02394,7.543762,193.0884,196.1708,25,-0.05970115,-0.06597129,-0.01604608,-0.2719117,0.001797882,0.03411324,-0.0007723178,0.0001139699,0.0005737812,0.001178629,0.0006746112,0.0006220291,172.17.160.76,10.175.81.193,5,stationary,2,2014-11-13 14:11:00.783,15,2014-11-13 13:57:29.604,0
2014-11-13 14:12:26.466,61588,2052.933,40.11403,-88.22443,225.0587,-1,-1,10,79.21869,1415909526,0.001037598,-0.03440857,-0.997879,9.669083,-33.43739,7.409668,193.085,196.1674,25,-0.05863269,-0.06704242,-0.0171172,-0.2718985,0.00180086,0.03407353,0.0002961094,0.0001046371,-0.0004919479,-0.0008385103,-0.0005552529,-0.001772253,172.17.160.76,10.175.81.193,5,stationary,2,2014-11-13 14:11:00.783,15,2014-11-13 13:57:29.604,0
2014-11-13 14:12:26.499,61589,2052.967,40.11403,-88.22443,225.0587,-1,-1,10,79.21869,1415909526,0.002212524,-0.03440857,-1.000458,9.496803,-33.40294,7.242126,193.0811,196.1635,25,-0.05969875,-0.06704188,-0.01711321,-0.2719119,0.001763689,0.03405846,0.0003049469,0.001161142,-0.001546125,-0.0007250676,-0.0003566952,0.001539484,172.17.160.76,10.175.81.193,5,stationary,2,2014-11-13 14:11:00.783,15,2014-11-13 13:57:29.604,0
2014-11-13 14:12:26.532,61590,2053,40.11403,-88.22443,225.0587,-1,-1,10,79.21869,1415909526,0.001480103,-0.03453064,-0.9986572,9.669083,-32.88612,7.476746,193.0799,196.1622,25,-0.05863189,-0.06597982,-0.01711161,-0.2719167,0.001775697,0.03410433,0.0002975812,0.00011421,0.0005712516,0.0004378613,-0.0003108523,-0.001040836,172.17.160.76,10.175.81.193,5,stationary,2,2014-11-13 14:11:00.783,15,2014-11-13 13:57:29.604,0
2014-11-13 14:12:26.566,61591,2053.033,40.11403,-88.22443,225.0587,-1,-1,10,79.21869,1415909526,0.001831055,-0.03459167,-0.9963837,9.772461,-32.23147,7.443176,193.0872,196.1696,25,-0.06076721,-0.06597076,-0.01604208,-0.2719048,0.001737687,0.03416634,0.0002958867,-0.002011427,0.0005599688,-0.0002565693,-0.0003709517,0.0007576521,172.17.160.76,10.175.81.193,5,stationary,2,2014-11-13 14:11:00.783,15,2014-11-13 13:57:29.604,0
2014-11-13 14:12:26.599,61592,2053.067,40.11403,-88.22443,225.0587,-1,-1,10,79.21869,1415909526,0.003067017,-0.03457642,-0.9987488,9.66909,-32.33483,7.543701,193.0915,196.1738,25,-0.05970195,-0.06703389,-0.01605167,-0.2719008,0.001796899,0.03414787,-0.001831753,0.0001068285,-0.0004825063,0.002476611,-0.0003436275,0.0001173089,172.17.160.76,10.175.81.193,5,stationary,2,2014-11-13 14:11:00.783,15,2014-11-13 13:57:29.604,0
2014-11-13 14:12:26.632,61593,2053.1,40.11403,-88.22443,225.0587,-1,-1,10,79.21869,1415909526,0.002059937,-0.03334045,-0.9960175,9.56572,-32.4382,7.845398,193.099,196.1814,25,-0.05969875,-0.06704188,-0.01711321,-0.2719097,0.001802623,0.03421102,0.0003044083,-0.0009548449,-0.0004944279,-0.0001078413,-0.001730097,-0.0005409874,172.17.160.76,10.175.81.193,5,stationary,2,2014-11-13 14:11:00.783,15,2014-11-13 13:57:29.604,0
2014-11-13 14:12:26.666,61594,2053.134,40.11403,-88.22443,225.0587,-1,-1,10,79.21869,1415909526,0.003967285,-0.03381348,-1.001816,9.358986,-32.64493,7.979492,193.0959,196.1783,25,-0.05969875,-0.06704188,-0.01711321,-0.2718975,0.001775561,0.03422923,0.0003016772,0.0001152795,0.0005726048,-0.0006301111,0.0006379469,0.00486005,172.17.160.76,10.175.81.193,5,stationary,2,2014-11-13 14:11:00.783,15,2014-11-13 13:57:29.604,0
2014-11-13 14:12:26.699,61595,2053.167,40.11403,-88.22443,225.0587,-1,-1,10,79.21869,1415909526,0.002227783,-0.03251648,-0.9968262,9.875809,-32.61047,8.012939,193.1022,196.1845,25,-0.05970035,-0.06490869,-0.01604049,-0.2719039,0.001821726,0.03423314,0.00137069,0.0001067618,-0.0004930028,0.002146627,0.0004129739,-0.002403351,172.17.160.76,10.175.81.193,5,stationary,2,2014-11-13 14:11:00.783,15,2014-11-13 13:57:29.604,0
2014-11-13 14:12:26.732,61596,2053.2,40.11403,-88.22443,225.0587,-1,-1,10,79.21869,1415909526,0.0007324219,-0.03282166,-1.000031,10.01363,-32.95502,8.68335,193.1162,196.1986,25,-0.06076401,-0.06597875,-0.01710362,-0.271897,0.001854171,0.03419727,-0.001829704,0.002240992,0.000591533,0.0007103909,-0.001041935,0.0005580214,172.17.160.76,10.175.81.193,5,stationary,2,2014-11-13 14:11:00.783,15,2014-11-13 13:57:29.604,0
2014-11-13 14:12:26.766,61597,2053.233,40.11403,-88.22443,225.0587,-1,-1,10,79.21869,1415909526,0.001708984,-0.03517151,-0.9997559,9.290077,-32.78276,8.515747,193.1137,196.1961,25,-0.05969875,-0.06704188,-0.01711321,-0.2718928,0.001764167,0.03418173,0.0003013134,0.001176588,0.0005778818,-0.002419264,-8.090889e-05,0.001108032,172.17.160.76,10.175.81.193,5,stationary,2,2014-11-13 14:11:00.783,15,2014-11-13 13:57:29.604,0
2014-11-13 14:12:26.799,61598,2053.267,40.11403,-88.22443,225.0587,-1,-1,10,79.21869,1415909526,0.002685547,-0.03459167,-0.9993439,9.15226,-33.0584,8.716858,193.105,196.1874,25,-0.05756582,-0.06598035,-0.0171156,-0.2719004,0.001706486,0.034232,-0.0007631421,-0.0009566533,-0.000490899,-0.001888591,-0.001632839,0.0003434732,172.17.160.76,10.175.81.193,5,stationary,2,2014-11-13 14:11:00.783,15,2014-11-13 13:57:29.604,0
2014-11-13 14:12:26.832,61599,2053.3,40.11403,-88.22443,225.0587,-1,-1,10,79.21869,1415909526,0.0003356934,-0.03309631,-0.9981079,9.117798,-33.16177,8.214111,193.0849,196.1673,25,-0.05863189,-0.06597982,-0.01711161,-0.2718897,0.00171772,0.03431493,0.0003037683,-0.002009261,0.0005628314,0.0009688385,-0.0002834822,6.595419e-05,172.17.160.76,10.175.81.193,5,stationary,2,2014-11-13 14:11:00.783,15,2014-11-13 13:57:29.604,0
2014-11-13 14:12:26.866,61600,2053.333,40.11403,-88.22443,225.0587,-1,-1,10,79.21869,1415909526,-0.0002746582,-0.03443909,-1.000427,8.945526,-33.26513,8.381653,193.0597,196.1421,25,-0.05756582,-0.06598035,-0.0171156,-0.2718894,0.001763118,0.03431221,0.001374189,0.0001071743,-0.0004916205,0.0006335501,0.0004920066,0.001790211,172.17.160.76,10.175.81.193,5,stationary,2,2014-11-13 14:11:00.783,15,2014-11-13 13:57:29.604,0
2014-11-13 14:12:26.899,61601,2053.367,40.11403,-88.22443,225.0587,-1,-1,10,79.21869,1415909526,0.001556396,-0.03309631,-0.9982605,9.221169,-33.33404,8.381653,193.0516,196.1339,25,-0.05970195,-0.06703389,-0.01605167,-0.2718945,0.001665853,0.03431543,-0.00182708,0.001178154,0.0005873276,7.463045e-05,0.0005562576,0.0008289639,172.17.160.76,10.175.81.193,5,stationary,2,2014-11-13 14:11:00.783,15,2014-11-13 13:57:29.604,0
2014-11-13 14:12:26.932,61602,2053.4,40.11403,-88.22443,225.0587,-1,-1,10,79.21869,1415909526,0.002929688,-0.0355072,-0.9963837,8.70433,-32.95503,7.945923,193.0256,196.108,25,-0.05863189,-0.06597982,-0.01711161,-0.2718941,0.001676314,0.03429159,0.0003069511,0.0001062175,-0.0004878952,0.0006287497,-0.0004746552,-0.0009249964,172.17.160.76,10.175.81.193,5,stationary,2,2014-11-13 14:11:00.783,15,2014-11-13 13:57:29.604,0
2014-11-13 14:12:26.966,61603,2053.433,40.11403,-88.22443,225.0587,-1,-1,10,79.21869,1415909526,0.003295898,-0.03489685,-0.9992523,9.496803,-33.0584,7.77832,193.0136,196.096,25,-0.06076322,-0.06491615,-0.01709803,-0.2718886,0.001729885,0.03432495,0.001376534,0.002241868,0.0005828301,0.0004378825,0.0005505127,0.002156043,172.17.160.76,10.175.81.193,5,stationary,2,2014-11-13 14:11:00.783,15,2014-11-13 13:57:29.604,0
2014-11-13 14:12:26.998,61604,2053.467,40.11403,-88.22443,225.0587,-1,-1,10,79.21869,1415909526,0.002441406,-0.03366089,-0.9959564,9.393433,-32.88612,7.409668,193.0113,196.0936,25,-0.05756423,-0.05959675,-0.01602051,-0.2717867,0.00151469,0.03430889,-0.006146828,-0.01463729,0.01644428,-0.0115846,-0.0006557279,-0.005594521,172.17.160.76,10.175.81.193,5,stationary,2,2014-11-13 14:11:00.783,15,2014-11-13 13:57:29.604,0
2014-11-13 14:12:27.032,61605,2053.5,40.11403,-88.22443,225.0587,-1,-1,10,79.21869,1415909526,0.002487183,-0.0332489,-1.001129,9.8069,-33.09286,7.476807,193.0141,196.0965,25,-0.06183487,-0.07235382,-0.01713318,-0.2717355,0.00174187,0.03429411,-0.0007570009,0.001180027,0.0005849918,0.001555053,0.0003060671,0.004094947,172.17.160.76,10.175.81.193,5,stationary,2,2014-11-13 14:11:00.783,15,2014-11-13 13:57:29.604,0
2014-11-13 14:12:27.066,61606,2053.533,40.11403,-88.22443,225.0587,-1,-1,10,79.21869,1415909526,-0.1445923,0.0500946,-1.031784,9.875793,-32.88614,7.476807,193.0267,196.1091,25,-0.1063259,-0.1890818,-0.1407132,-0.271768,0.001522038,0.03416924,-0.007162526,-0.01902241,-0.001620479,0.001881561,-0.000123905,-0.008076935,172.17.160.76,10.175.81.193,5,stationary,2,2014-11-13 14:11:00.783,15,2014-11-13 13:57:29.604,0
2014-11-13 14:12:27.099,61607,2053.567,40.11403,-88.22443,225.0587,-1,-1,10,79.21869,1415909526,-0.007263184,0.03353882,-0.9232178,9.462326,-32.88614,7.476807,193.0253,196.1077,25,-0.2185326,-0.492826,-0.1280933,-0.2730808,-0.0004188207,0.0334953,-0.04738465,-0.1229984,-0.1240877,-0.04677685,0.01270657,-0.01734567,172.17.160.76,10.175.81.193,5,stationary,2,2014-11-13 14:11:00.783,15,2014-11-13 13:57:29.604,0
2014-11-13 14:12:27.132,61608,2053.6,40.11403,-88.22443,225.0587,-1,-1,10,79.21869,1415909526,-0.05712891,0.05331421,-1.071442,9.427872,-32.78277,7.376221,192.8819,195.9643,25,-0.106834,-0.1580027,0.0356584,-0.2779664,-0.01107116,0.02921136,-0.06879139,-0.1578909,-0.1029598,0.003803025,0.06274603,0.07629435,172.17.160.76,10.175.81.193,5,stationary,2,2014-11-13 14:11:00.783,15,2014-11-13 13:57:29.604,0
2014-11-13 14:12:27.166,61609,2053.634,40.11403,-88.22443,225.0587,-1,-1,10,79.21869,1415909526,-0.1250153,0.03799438,-1.004257,9.048866,-32.54158,7.141541,192.4316,195.5139,25,-0.2886166,-0.1208654,0.5821364,-0.2705677,-0.01286292,0.0253495,-0.1863734,-0.02237179,0.3896601,-0.1044664,0.02325633,-0.03067742,172.17.160.76,10.175.81.193,5,stationary,2,2014-11-13 14:11:00.783,15,2014-11-13 13:57:29.604,0
2014-11-13 14:12:27.199,61610,2053.667,40.11403,-88.22443,225.0587,-1,-1,10,79.21869,1415909526,0.003494263,-0.1093445,-0.9799957,9.014412,-32.78277,7.175049,192.1187,195.201,25,-0.2960426,-0.02939118,1.300208,-0.2472655,-0.01438493,0.01838431,-0.226767,-0.02796163,1.056393,-0.09831941,0.08228708,-0.002362885,172.17.160.76,10.175.81.193,5,stationary,2,2014-11-13 14:11:00.783,15,2014-11-13 13:57:29.604,0
2014-11-13 14:12:27.233,61611,2053.7,40.11403,-88.22443,225.0587,-1,-1,10,79.21869,1415909526,0.08532715,-0.1642761,-0.9888,8.290848,-32.40376,7.208618,191.2489,194.3313,25,-0.2869924,0.1747678,1.179178,-0.2352317,-0.01471091,0.01591463,-0.2390219,0.0191421,1.243507,-0.06811619,0.03962612,0.002374428,172.17.160.76,10.175.81.193,5,stationary,2,2014-11-13 14:11:00.783,15,2014-11-13 13:57:29.604,0
2014-11-13 14:12:27.266,61612,2053.733,40.11403,-88.22443,225.0587,-1,-1,10,79.21869,1415909526,0.1086426,-0.02108765,-1.008804,7.636208,-32.02476,7.041016,190.0789,193.1613,25,-0.283273,0.01589641,0.2590846,-0.1901917,-0.004769793,0.002736071,-0.2419156,0.1392025,0.1126104,0.2265715,-0.06949904,0.001663348,172.17.160.76,10.175.81.193,5,stationary,2,2014-11-13 14:11:00.783,15,2014-11-13 13:57:29.604,0
2014-11-13 14:12:27.299,61613,2053.767,40.11403,-88.22443,225.0587,-1,-1,10,79.21869,1415909526,-0.01924133,0.05252075,-1.03923,7.188293,-31.50792,6.605286,189.5297,192.6121,25,-0.2517633,0.02664226,0.4182455,-0.1802415,-0.003945048,-0.003815045,-0.213117,-0.04340878,0.4161881,-0.004905089,0.06503262,0.01538106,172.17.160.76,10.175.81.193,5,stationary,2,2014-11-13 14:11:00.783,15,2014-11-13 13:57:29.604,0
2014-11-13 14:12:27.332,61614,2053.8,40.11403,-88.22443,225.0587,-1,-1,10,79.21869,1415909526,-0.07055664,0.008560181,-0.963089,7.291664,-31.6113,5.968506,189.5504,192.6328,25,-0.1959032,0.8085618,0.1228159,-0.1681798,0.005234212,-0.01033464,-0.2411772,0.6340095,0.3487411,-0.02447524,0.04218629,-0.03929745,172.17.160.76,10.175.81.193,5,stationary,2,2014-11-13 14:11:00.783,15,2014-11-13 13:57:29.604,0
2014-11-13 14:12:27.366,61615,2053.833,40.11403,-88.22443,225.0587,-1,-1,10,79.21869,1415909526,0.1248627,-0.02592468,-0.9878082,7.532852,-31.43902,5.800903,189.9495,193.0319,25,-0.07772543,1.091539,-0.1075395,-0.1631849,0.04342762,-0.01474351,-0.04647212,1.144808,-0.1014896,-0.02825727,-0.06976616,-0.01621865,172.17.160.76,10.175.81.193,5,stationary,2,2014-11-13 14:11:00.783,15,2014-11-13 13:57:29.604,0
2014-11-13 14:12:27.399,61616,2053.867,40.11403,-88.22443,225.0587,-1,-1,10,79.21869,1415909526,0.09712219,-0.04412842,-0.9612427,8.153038,-31.50793,6.001953,191.015,194.0974,25,-0.09747622,0.7277951,-0.01384764,-0.1655188,0.06687552,-0.01544193,-0.01877708,1.157625,-0.09091107,0.04533438,-0.02595462,0.009867998,172.17.160.76,10.175.81.193,5,stationary,2,2014-11-13 14:11:00.783,15,2014-11-13 13:57:29.604,0
2014-11-13 14:12:27.432,61617,2053.9,40.11403,-88.22443,225.0587,-1,-1,10,79.21869,1415909526,0.1092377,-0.03442383,-1.014328,9.806892,-31.3701,5.666809,193.6438,196.7262,25,-0.06345834,0.5614055,-0.3778781,-0.167506,0.09979271,-0.01669804,-0.02629272,0.6531403,-0.2018108,-0.002491077,-0.06082568,0.03364345,172.17.160.76,10.175.81.193,5,stationary,2,2014-11-13 14:11:00.783,15,2014-11-13 13:57:29.604,0
2014-11-13 14:12:27.466,61618,2053.933,40.11403,-88.22443,225.0587,-1,-1,10,79.21869,1415909526,0.7886047,-0.1269379,-1.193695,10.35817,-31.23228,5.733826,194.6718,197.7542,25,-0.1093944,1.145596,-0.5508357,-0.1801558,0.1178152,-0.01774878,0.0417485,0.5582871,-0.5178254,-0.008286651,-0.05217167,-0.0214166,172.17.160.76,10.175.81.193,5,stationary,2,2014-11-13 14:11:00.783,15,2014-11-13 13:57:29.604,0
2014-11-13 14:12:27.499,61619,2053.967,40.11403,-88.22443,225.0587,-1,-1,10,79.21869,1415909526,-0.3763733,-0.143631,-1.077209,12.28767,-30.95664,5.063477,197.5061,200.5884,25,0.1540956,2.634395,-1.643678,-0.2211227,0.2162566,-0.02632787,-0.06012946,2.947187,-1.477182,0.7475966,-0.3150974,0.2183429,172.17.160.76,10.175.81.193,5,stationary,2,2014-11-13 14:11:00.783,15,2014-11-13 13:57:29.604,0
2014-11-13 14:12:27.532,61620,2054,40.11403,-88.22443,225.0587,-1,-1,10,79.21869,1415909526,0.0402832,0.2977295,-0.8819733,15.66428,-31.30119,5.733887,202.0082,205.0906,25,0.0185095,0.4243289,-0.3735994,-0.2606289,0.2841893,-0.03090008,0.06546514,1.318267,-0.7654836,-0.5397212,-0.06002419,-8.737932e-05,172.17.160.76,10.175.81.193,5,stationary,2,2014-11-13 14:11:00.783,15,2014-11-13 13:57:29.604,0
2014-11-13 14:12:27.566,61621,2054.033,40.11403,-88.22443,225.0587,-1,-1,10,79.21869,1415909526,0.365097,-0.03877258,-1.011246,17.24923,-31.43901,5.532715,206.4125,209.4949,25,-0.2493291,0.1046665,0.3379746,-0.264414,0.2911964,-0.03143292,-0.1231563,-0.1307263,0.2561682,-0.2239989,0.2550102,-0.06858835,172.17.160.76,10.175.81.193,5,unknown,2,2014-11-13 14:12:27.521,15,2014-11-13 13:57:29.604,0
2014-11-13 14:12:27.599,61622,2054.067,40.11403,-88.22443,225.0587,-1,-1,10,79.21869,1415909526,0.2383118,0.09840393,-0.9314575,19.17872,-31.30118,6.605286,209.5559,212.6383,25,-0.3239104,1.273525,0.6214558,-0.2505215,0.3076148,-0.03344583,-0.2318207,1.109399,0.5475827,0.06248014,-0.07221218,-0.05872024,172.17.160.76,10.175.81.193,5,unknown,2,2014-11-13 14:12:27.521,15,2014-11-13 13:57:29.604,0
2014-11-13 14:12:27.633,61623,2054.1,40.11403,-88.22443,225.0587,-1,-1,10,79.21869,1415909526,0.2908936,0.05981445,-1.117599,19.66109,-31.09445,6.471191,210.1544,213.2368,25,-0.1948947,1.255836,0.2557298,-0.2313029,0.3498929,-0.03432512,-0.1823987,1.423537,0.5002236,-0.1042835,0.06408555,0.007398559,172.17.160.76,10.175.81.193,5,unknown,2,2014-11-13 14:12:27.521,15,2014-11-13 13:57:29.604,0
2014-11-13 14:12:27.666,61624,2054.134,40.11403,-88.22443,225.0587,-1,-1,10,79.21869,1415909526,0.4337006,-0.01029968,-1.219498,20.21238,-30.68098,7.275635,210.9695,214.0519,25,0.3636174,-0.5790122,0.1749798,-0.2272873,0.3805993,-0.03510705,0.04139972,0.3914796,-0.09198735,-0.08035451,0.02471462,-0.1897294,172.17.160.76,10.175.81.193,5,unknown,2,2014-11-13 14:12:27.521,15,2014-11-13 13:57:29.604,0
2014-11-13 14:12:27.699,61625,2054.167,40.11403,-88.22443,225.0587,-1,-1,10,79.21869,1415909526,0.3334198,0.07189941,-1.079422,20.76366,-31.09446,7.141541,211.1197,214.202,25,1.720206,-1.457767,0.8223298,-0.2235142,0.3583487,-0.0113281,1.019426,-1.130361,0.7826737,0.08299478,-0.02162754,-0.2830805,172.17.160.76,10.175.81.193,5,unknown,2,2014-11-13 14:12:27.521,15,2014-11-13 13:57:29.604,0
2014-11-13 14:12:27.732,61626,2054.2,40.11403,-88.22443,225.0587,-1,-1,10,79.21869,1415909526,0.1082764,-0.02549744,-1.235046,19.10981,-32.47266,7.744873,208.6469,211.7293,25,3.150647,-1.516501,0.1670372,-0.2167552,0.3173652,0.04511876,2.254939,-1.500231,0.7049822,-0.09264588,0.05279388,-0.1327235,172.17.160.76,10.175.81.193,5,unknown,2,2014-11-13 14:12:27.521,15,2014-11-13 13:57:29.604,0
2014-11-13 14:12:27.766,61627,2054.233,40.11403,-88.22443,225.0587,-1,-1,10,79.21869,1415909526,0.2646637,0.04676819,-1.265335,17.76606,-34.02315,8.515747,206.3257,209.4081,25,3.701521,-2.545007,0.3495636,-0.2441629,0.2565954,0.1716654,3.702964,-1.960046,0.1260612,-0.08637759,0.2170119,-0.317801,172.17.160.76,10.175.81.193,5,unknown,2,2014-11-13 14:12:27.521,15,2014-11-13 13:57:29.604,0
2014-11-13 14:12:27.799,61628,2054.267,40.11403,-88.22443,225.0587,-1,-1,10,79.21869,1415909526,0.3815765,-0.2847443,-1.099014,14.14827,-37.84769,10.22516,200.9578,204.0401,25,3.652997,-4.044683,0.8577283,-0.2530743,0.2062717,0.2466041,3.736831,-3.008069,0.647972,0.0660478,0.2908804,-0.3161454,172.17.160.76,10.175.81.193,5,unknown,2,2014-11-13 14:12:27.521,15,2014-11-13 13:57:29.604,0
2014-11-13 14:12:27.832,61629,2054.3,40.11403,-88.22443,225.0587,-1,-1,10,79.21869,1415909526,0.1593475,-0.3633423,-0.9703827,9.083351,-42.2235,13.8786,195.2073,198.2897,25,4.632319,-2.634668,1.342338,-0.2209448,0.002128631,0.4449386,4.358182,-3.459356,1.291834,0.3201917,0.1235787,-0.09889083,172.17.160.76,10.175.81.193,5,unknown,2,2014-11-13 14:12:27.521,15,2014-11-13 13:57:29.604,0
2014-11-13 14:12:27.866,61630,2054.333,40.11403,-88.22443,225.0587,-1,-1,10,79.21869,1415909526,0.1906433,-0.3403778,-1.107727,6.326927,-44.42863,16.22485,192.5457,195.6281,25,4.925959,-2.322467,1.617806,-0.2051502,-0.03278744,0.4908098,4.691271,-2.568583,1.358967,0.2983209,0.162304,-0.07372274,172.17.160.76,10.175.81.193,5,unknown,2,2014-11-13 14:12:27.521,15,2014-11-13 13:57:29.604,0
2014-11-13 14:12:27.898,61631,2054.367,40.11403,-88.22443,225.0587,-1,-1,10,79.21869,1415909526,-0.1629791,-0.1663666,-0.5207977,0.09053802,-47.70189,23.63226,186.8024,189.8848,25,5.758235,-2.423216,2.401778,-0.03697792,-0.2582583,0.7293674,5.384171,-2.559767,2.432761,0.2336206,0.2451487,-0.2747666,172.17.160.76,10.175.81.193,5,unknown,2,2014-11-13 14:12:27.521,15,2014-11-13 13:57:29.604,0
2014-11-13 14:12:27.932,61632,2054.4,40.11403,-88.22443,225.0587,-1,-1,10,79.21869,1415909526,-0.339798,-0.7476959,-0.4192657,-5.181114,-48.83891,32.51447,183.3621,186.4445,25,5.218364,1.751905,1.846217,0.1933757,-0.4718089,0.9257946,5.915407,0.6728262,1.374636,0.2191672,0.4530904,0.1845804,172.17.160.76,10.175.81.193,5,unknown,2,2014-11-13 14:12:27.521,15,2014-11-13 13:57:29.604,0
2014-11-13 14:12:27.965,61633,2054.433,40.11403,-88.22443,225.0587,-1,-1,10,79.21869,1415909526,-0.51651,-0.7103729,-0.2176361,-7.489616,-48.66663,36.9053,181.5697,184.6521,25,4.207909,0.122083,2.084497,0.3419405,-0.5632659,1.005601,5.277314,1.817989,1.862846,0.1251916,0.1285112,0.2063514,172.17.160.76,10.175.81.193,5,unknown,2,2014-11-13 14:12:27.521,15,2014-11-13 13:57:29.604,0
2014-11-13 14:12:27.999,61634,2054.467,40.11403,-88.22443,225.0587,-1,-1,10,79.21869,1415909526,-0.6974335,-0.7554932,0.05368042,-11.93434,-47.11614,43.84348,176.9615,180.0438,25,2.23169,-1.056097,1.704621,0.5980517,-0.7701139,1.072086,3.680877,-0.554978,2.150358,-0.1835138,0.167827,0.1256981,172.17.160.76,10.175.81.193,5,unknown,2,2014-11-13 14:12:27.521,15,2014-11-13 13:57:29.604,0
2014-11-13 14:12:28.032,61635,2054.5,40.11403,-88.22443,225.0587,-1,-1,10,79.21869,1415909526,-0.7913513,-0.7391815,-0.1929474,-13.51927,-46.56487,46.05563,174.5027,177.5851,25,1.513739,0.04572701,-0.3238721,0.8254517,-1.003889,1.081247,1.38368,-0.4691001,0.7104891,-0.3283069,0.1352455,0.2759776,172.17.160.76,10.175.81.193,5,unknown,2,2014-11-13 14:12:27.521,15,2014-11-13 13:57:29.604,0
2014-11-13 14:12:28.066,61636,2054.533,40.11403,-88.22443,225.0587,-1,-1,10,79.21869,1415909526,-0.6185608,-0.850174,-0.07395935,-15.3454,-45.29002,49.23981,179.9722,183.0546,26,1.201041,-0.4946198,-1.407197,0.9045652,-1.074482,1.10863,1.537737,-0.09581056,-0.7890576,-0.4023601,0.1623159,-0.05384795,172.17.160.76,10.175.81.193,5,unknown,2,2014-11-13 14:12:27.521,15,2014-11-13 13:57:29.604,0
2014-11-13 14:12:28.099,61637,2054.567,40.11403,-88.22443,225.0587,-1,-1,10,79.21869,1415909526,-0.3862915,-0.9105377,-0.1750031,-14.27729,-45.11774,50.81516,180.7275,183.8099,26,1.081297,-0.03379764,-1.881989,0.9474233,-1.127285,1.181324,0.9787125,-0.2749742,-1.758102,-0.185203,0.08988914,0.07060361,172.17.160.76,10.175.81.193,5,unknown,2,2014-11-13 14:12:27.521,15,2014-11-13 13:57:29.604,0
2014-11-13 14:12:28.132,61638,2054.6,40.11403,-88.22443,225.0587,-1,-1,10,79.21869,1415909526,-0.2857056,-0.9533234,-0.2075653,-12.14107,-45.80684,52.22287,185.3366,188.419,26,1.412838,0.09167133,-1.849663,0.9857168,-1.161808,1.268364,1.427116,0.2331006,-1.848394,-0.03159216,0.02720079,-0.08423587,172.17.160.76,10.175.81.193,5,unknown,2,2014-11-13 14:12:27.521,15,2014-11-13 13:57:29.604,0
2014-11-13 14:12:28.166,61639,2054.634,40.11403,-88.22443,225.0587,-1,-1,10,79.21869,1415909526,-0.2047882,-0.9251709,-0.02737427,-11.07295,-46.04803,52.79266,185.7804,188.8628,26,1.385785,-0.1947543,-1.789504,1.034508,-1.206458,1.313291,1.481177,0.001761612,-1.805232,-0.04775289,0.01370485,-0.1168187,172.17.160.76,10.175.81.193,5,unknown,2,2014-11-13 14:12:27.521,15,2014-11-13 13:57:29.604,0
2014-11-13 14:12:28.199,61640,2054.667,40.11403,-88.22443,225.0587,-1,-1,10,79.21869,1415909526,-0.03651428,-1.006149,-0.03440857,-8.178711,-46.94386,54.53558,188.7442,191.8266,26,1.068417,0.1356976,-1.809929,1.187265,-1.359459,1.397721,1.23176,0.0496868,-1.806169,0.01332094,0.04348577,0.05596101,172.17.160.76,10.175.81.193,5,unknown,2,2014-11-13 14:12:27.521,15,2014-11-13 13:57:29.604,0
2014-11-13 14:12:28.232,61641,2054.7,40.11403,-88.22443,225.0587,-1,-1,10,79.21869,1415909526,0.06640625,-1.032639,-0.05197144,-5.043289,-47.46069,55.90979,192.3332,195.4156,26,1.041005,-0.5724699,-1.031243,1.365603,-1.531338,1.452677,1.030467,0.009383719,-1.526458,0.08123866,-0.01311725,-0.0297598,172.17.160.76,10.175.81.193,5,unknown,2,2014-11-13 14:12:27.521,15,2014-11-13 13:57:29.604,0
2014-11-13 14:12:28.266,61642,2054.733,40.11403,-88.22443,225.0587,-1,-1,10,79.21869,1415909526,-0.01495361,-0.9234924,0.1303558,-3.596169,-47.52961,56.71417,195.3576,198.44,26,0.7482524,-0.4935082,-0.4406083,1.85089,-2.032227,1.48256,0.9973212,-0.5285019,-0.570648,0.1377289,0.0104987,0.04444456,172.17.160.76,10.175.81.193,5,unknown,2,2014-11-13 14:12:27.521,15,2014-11-13 13:57:29.604,0
2014-11-13 14:12:28.299,61643,2054.767,40.11403,-88.22443,225.0587,-1,-1,10,79.21869,1415909526,-0.01853943,-0.9043732,0.2066803,-2.252403,-47.56406,57.95432,197.0642,200.1466,26,0.4705955,-0.1318052,-0.5416891,2.163495,-2.356324,1.478864,0.6825493,-0.3296228,-0.425122,0.04610734,0.0585671,0.1165956,172.17.160.76,10.175.81.193,5,unknown,2,2014-11-13 14:12:27.521,15,2014-11-13 13:57:29.604,0
2014-11-13 14:12:28.332,61644,2054.8,40.11403,-88.22443,225.0587,-1,-1,10,79.21869,1415909526,0.05357361,-0.9583435,0.09115601,-1.563301,-47.42624,58.42355,198.1018,201.1842,26,0.3163846,0.07281882,-0.6111534,2.398533,-2.593207,1.475369,0.4551864,0.07523005,-0.5781766,0.04211847,0.07853441,0.1380192,172.17.160.76,10.175.81.193,1,unknown,2,2014-11-13 14:12:27.521,15,2014-11-13 13:57:29.604,0
2014-11-13 14:12:28.366,61645,2054.833,40.11403,-88.22443,225.0587,-1,-1,10,79.21869,1415909526,0.1016998,-0.9602509,0.1675568,-0.8052826,-47.35733,58.82574,199.6062,202.6886,26,0.3011053,-0.3302996,-0.2427618,2.652707,-2.795155,1.47336,0.3076986,-0.06429708,-0.4902562,0.1109342,0.02875004,-0.00688212,172.17.160.76,10.175.81.193,1,unknown,2,2014-11-13 14:12:27.521,15,2014-11-13 13:57:29.604,0
2014-11-13 14:12:28.399,61646,2054.867,40.11403,-88.22443,225.0587,-1,-1,10,79.21869,1415909526,0.004364014,-0.9125519,0.2617493,0.159462,-47.63298,59.36203,200.8296,203.912,26,0.01331075,-0.4478973,0.06764935,2.712482,-2.913595,1.463126,0.2569135,-0.2994435,0.02882174,0.1222966,0.03919207,0.09108898,172.17.160.76,10.175.81.193,1,unknown,2,2014-11-13 14:12:27.521,15,2014-11-13 13:57:29.604,0
2014-11-13 14:12:28.433,61647,2054.9,40.11403,-88.22443,225.0587,-1,-1,10,79.21869,1415909526,-0.00642395,-0.9068604,0.2736816,0.40065,-47.80525,59.5296,201.767,204.8493,26,-0.09637554,-0.4566549,0.02661617,2.704195,-2.912539,1.459812,0.07225583,-0.381819,0.08427642,0.05490269,0.05875842,0.1369479,172.17.160.76,10.175.81.193,1,unknown,2,2014-11-13 14:12:27.521,15,2014-11-13 13:57:29.604,0
2014-11-13 14:12:28.466,61648,2054.933,40.11403,-88.22443,225.0587,-1,-1,10,79.21869,1415909526,0.01277161,-0.9399719,0.1143036,1.158669,-47.80525,59.39554,202.8448,205.9272,26,-0.1817224,-0.08757752,-0.2120771,2.718641,-2.94117,1.468925,-0.2274031,-0.1073027,-0.1668502,0.04910015,0.06621152,0.1189841,172.17.160.76,10.175.81.193,1,unknown,2,2014-11-13 14:12:27.521,15,2014-11-13 13:57:29.604,0
2014-11-13 14:12:28.499,61649,2054.967,40.11403,-88.22443,225.0587,-1,-1,10,79.21869,1415909526,0.03871155,-0.9437408,0.1529083,1.778854,-47.73634,59.26144,204.1856,207.268,26,0.2021147,-0.1432642,-0.2456521,2.779263,-3.002017,1.470531,0.149163,-0.02293837,-0.2283206,0.02669748,0.05500572,0.01517965,172.17.160.76,10.175.81.193,1,unknown,0,2014-11-13 14:12:28.447,15,2014-11-13 13:57:29.604,0
2014-11-13 14:12:28.532,61650,2055,40.11403,-88.22443,225.0587,-1,-1,10,79.21869,1415909526,0.0509491,-0.9313507,0.2600403,1.882217,-47.42624,59.29495,204.2983,207.3806,26,0.4108099,-0.06714895,-0.143069,2.828859,-3.053023,1.465322,0.3675891,-0.1100533,-0.2126136,0.03519121,0.05759888,0.0009994139,172.17.160.76,10.175.81.193,1,unknown,0,2014-11-13 14:12:28.447,15,2014-11-13 13:57:29.604,0
2014-11-13 14:12:28.566,61651,2055.033,40.11403,-88.22443,225.0587,-1,-1,10,79.21869,1415909526,-0.01766968,-0.9000854,0.2702942,1.847763,-48.01198,59.79773,205.4259,208.5083,26,-0.001223722,0.07544576,-0.2819523,2.892084,-3.114048,1.445281,0.2726425,0.1339522,-0.1281778,0.006942084,0.09737314,0.1604448,172.17.160.76,10.175.81.193,1,unknown,0,2014-11-13 14:12:28.447,15,2014-11-13 13:57:29.604,0
2014-11-13 14:12:28.599,61652,2055.067,40.11403,-88.22443,225.0587,-1,-1,10,79.21869,1415909526,0.04185486,-0.9445648,0.1980133,2.192322,-48.01198,59.86478,205.5005,208.5829,26,-0.06822912,-0.01433846,-0.3564779,2.926767,3.137652,1.442678,0.05771931,0.1415218,-0.2653258,-0.01817321,0.09171861,0.142527,172.17.160.76,10.175.81.193,1,unknown,0,2014-11-13 14:12:28.447,15,2014-11-13 13:57:29.604,0
2014-11-13 14:12:28.632,61653,2055.1,40.11403,-88.22443,225.0587,-1,-1,10,79.21869,1415909526,0.05601501,-0.943512,0.1700287,2.295692,-48.04643,59.63016,205.509,208.5913,26,-0.03764964,-0.06567834,-0.258145,3.024192,3.043116,1.441859,0.01284191,-0.002986155,-0.2680418,0.0468218,0.03974899,0.06544748,172.17.160.76,10.175.81.193,1,unknown,0,2014-11-13 14:12:28.447,15,2014-11-13 13:57:29.604,0
2014-11-13 14:12:28.666,61654,2055.134,40.11403,-88.22443,225.0587,-1,-1,10,79.21869,1415909526,0.07150269,-0.9585419,0.1817474,3.157066,-47.87415,59.5296,206.2937,209.3761,26,0.1285324,-0.07290404,-0.2195305,3.09196,2.976121,1.438088,0.1374159,-0.0005323206,-0.2164829,0.03606611,0.03818901,0.0298736,172.17.160.76,10.175.81.193,1,unknown,0,2014-11-13 14:12:28.447,15,2014-11-13 13:57:29.604,0
2014-11-13 14:12:28.699,61655,2055.167,40.11403,-88.22443,225.0587,-1,-1,10,79.21869,1415909526,0.06661987,-0.954483,0.2181244,3.294884,-48.1498,59.46259,206.7967,209.8791,26,0.03237578,-0.04252003,-0.1415222,3.125862,2.9426,1.431337,0.1927222,0.01998861,-0.1688154,0.04850941,0.0287587,0.06271002,172.17.160.76,10.175.81.193,1,unknown,0,2014-11-13 14:12:28.447,15,2014-11-13 13:57:29.604,0
2014-11-13 14:12:28.732,61656,2055.2,40.11403,-88.22443,225.0587,-1,-1,10,79.21869,1415909526,0.06729126,-0.9538879,0.2169037,3.536072,-48.32207,59.56311,207.3409,210.4232,26,-0.05506858,-0.0786048,-0.1413848,-3.13448,2.920674,1.427391,0.04757267,0.001309332,-0.1184806,0.03530369,0.03525208,0.0786837,172.17.160.76,10.175.81.193,1,unknown,0,2014-11-13 14:12:28.447,15,2014-11-13 13:57:29.604,0
2014-11-13 14:12:28.766,61657,2055.233,40.11403,-88.22443,225.0587,-1,-1,10,79.21869,1415909526,0.09431458,-0.9560394,0.2162018,3.501617,-47.87415,59.93182,207.6206,210.7029,26,-0.04887353,-0.1206886,-0.08537109,-3.098831,2.884531,1.42669,-0.001513238,-0.03578055,-0.1089389,0.04045431,0.03231344,0.06855375,172.17.160.76,10.175.81.193,1,unknown,0,2014-11-13 14:12:28.447,15,2014-11-13 13:57:29.604,0
2014-11-13 14:12:28.799,61658,2055.267,40.11403,-88.22443,225.0587,-1,-1,10,79.21869,1415909526,0.06800842,-0.9602966,0.188797,3.708351,-48.01197,60.40109,208.256,211.3384,26,-0.1546183,-0.1116078,-0.01486949,-3.08972,2.873771,1.426685,-0.05408386,-0.05727851,-0.003768632,0.05631014,0.03359452,0.07770877,172.17.160.76,10.175.81.193,1,unknown,0,2014-11-13 14:12:28.447,15,2014-11-13 13:57:29.604,0
2014-11-13 14:12:28.832,61659,2055.3,40.11403,-88.22443,225.0587,-1,-1,10,79.21869,1415909526,0.06735229,-0.9654388,0.1752625,3.673904,-47.97751,60.36755,208.282,211.3644,26,-0.1289242,-0.08634181,-0.04455415,-3.067024,2.849759,1.420823,-0.1009186,-0.0328518,-0.009841633,0.0196807,0.0306909,0.03494486,172.17.160.76,10.175.81.193,1,unknown,0,2014-11-13 14:12:28.447,15,2014-11-13 13:57:29.604,0
2014-11-13 14:12:28.866,61660,2055.333,40.11403,-88.22443,225.0587,-1,-1,10,79.21869,1415909526,0.05712891,-0.9633789,0.168335,3.604996,-47.83969,59.96536,208.5699,211.6522,26,-0.07021397,0.01563861,-0.04423697,-3.049301,2.832,1.416857,-0.009099572,0.03494757,-0.03212465,0.02510723,0.02525351,0.03842076,172.17.160.76,10.175.81.193,1,unknown,0,2014-11-13 14:12:28.447,15,2014-11-13 13:57:29.604,0
2014-11-13 14:12:28.899,61661,2055.367,40.11403,-88.22443,225.0587,-1,-1,10,79.21869,1415909526,0.05387878,-0.9657135,0.1714325,3.949539,-47.28841,59.42914,208.6358,211.7182,26,-0.01589108,-0.04601942,-0.04476507,-3.037032,2.821939,1.411498,-0.0005140807,0.07850786,-0.0329936,0.007282984,0.02395998,0.01774511,172.17.160.76,10.175.81.193,1,unknown,0,2014-11-13 14:12:28.447,15,2014-11-13 13:57:29.604,0
2014-11-13 14:12:28.932,61662,2055.4,40.11403,-88.22443,225.0587,-1,-1,10,79.21869,1415909526,0.0456543,-0.9634247,0.1798401,4.225182,-47.2195,59.36209,208.6319,211.7142,26,-0.0883762,-0.06622855,-0.05203044,-3.034328,2.820106,1.40899,0.04412975,-0.009542585,-0.01133384,-0.00261027,0.02601565,0.03091416,172.17.160.76,10.175.81.193,1,unknown,0,2014-11-13 14:12:28.447,15,2014-11-13 13:57:29.604,0
2014-11-13 14:12:28.966,61663,2055.433,40.11403,-88.22443,225.0587,-1,-1,10,79.21869,1415909526,0.05474854,-0.9680481,0.1620636,4.328545,-47.46069,59.46268,208.6241,211.7065,26,-0.07866658,-0.01967863,-0.07835872,-3.040069,2.826339,1.404423,-0.02605763,0.01992422,-0.05337287,-0.003160376,0.01997484,0.0105235,172.17.160.76,10.175.81.193,1,unknown,0,2014-11-13 14:12:28.447,15,2014-11-13 13:57:29.604,0
2014-11-13 14:12:28.999,61664,2055.467,40.11403,-88.22443,225.0587,-1,-1,10,79.21869,1415909526,0.05900574,-0.9784088,0.1379395,-4.204094,-32.66663,19.50488,204.9464,208.0287,26,-0.01139354,0.05559668,-0.09625942,-3.026492,2.814946,1.403752,-0.003511269,0.09723527,-0.0859566,-0.001714654,0.01192886,-0.007589994,172.17.160.76,10.175.81.193,1,unknown,0,2014-11-13 14:12:28.447,15,2014-11-13 13:57:29.604,0
2014-11-13 14:12:29.032,61665,2055.5,40.11403,-88.22443,225.0587,-1,-1,10,79.21869,1415909526,0.04824829,-0.9863281,0.1417084,-4.376305,-33.11452,19.53839,201.0065,204.0888,25,-0.01251473,0.03337846,-0.08363444,-3.008245,2.800294,1.403542,0.0497545,0.1185727,-0.07118423,0.00328452,0.0076368,-0.01893373,172.17.160.76,10.175.81.193,1,unknown,0,2014-11-13 14:12:28.447,15,2014-11-13 13:57:29.604,0
2014-11-13 14:12:29.066,61666,2055.533,40.11403,-88.22443,225.0587,-1,-1,10,79.21869,1415909526,0.05096436,-0.9747772,0.177536,-4.066299,-33.56243,19.63904,159.5488,162.6312,25,-0.02974671,-0.08860444,-0.05661374,-2.998983,2.793222,1.402835,0.05063771,-0.006616911,-0.04530852,-0.007125116,0.00286488,-0.01249266,172.17.160.76,10.175.81.193,1,unknown,0,2014-11-13 14:12:28.447,15,2014-11-13 13:57:29.604,0
2014-11-13 14:12:29.099,61667,2055.567,40.11403,-88.22443,225.0587,-1,-1,10,79.21869,1415909526,0.07069397,-0.9777222,0.1732483,-3.859642,-33.49352,20.04166,158.7248,161.8072,25,-0.08723983,-0.06640486,-0.07538823,-2.998193,2.791814,1.400651,-0.02609613,-0.0247159,-0.05466856,-0.0001036348,0.0108593,0.02203422,172.17.160.76,10.175.81.193,1,unknown,0,2014-11-13 14:12:28.447,15,2014-11-13 13:57:29.604,0
2014-11-13 14:12:29.132,61668,2055.6,40.11403,-88.22443,225.0587,-1,-1,10,79.21869,1415909526,0.06941223,-0.9810181,0.1707916,-3.687424,-33.04563,20.00806,159.2285,162.3108,25,-0.03513136,0.009477125,-0.01361781,-2.979354,2.77435,1.398196,0.02080059,0.0721833,-0.02461651,0.02145076,-0.009914721,0.009796465,172.17.160.76,10.175.81.193,1,unknown,0,2014-11-13 14:12:28.447,15,2014-11-13 13:57:29.604,0
2014-11-13 14:12:29.166,61669,2055.634,40.11403,-88.22443,225.0587,-1,-1,10,79.21869,1415909526,0.07984924,-0.9853516,0.1795502,-4.100754,-32.90782,19.47125,159.0686,162.151,25,-0.1141111,-0.05200248,0.001214934,-2.978687,2.774989,1.397075,0.0121501,0.05120786,0.01139436,0.007455172,0.00393036,0.009428927,172.17.160.76,10.175.81.193,1,unknown,0,2014-11-13 14:12:28.447,15,2014-11-13 13:57:29.604,0
2014-11-13 14:12:29.199,61670,2055.667,40.11403,-88.22443,225.0587,-1,-1,10,79.21869,1415909526,0.06565857,-0.9897156,0.1573334,-4.376305,-32.83891,19.60547,158.9707,162.0531,25,-0.1355898,-0.05692134,0.05222059,-2.975791,2.772851,1.39743,-0.09030186,0.01855149,0.04238576,0.01747493,-0.006460682,0.01443464,172.17.160.76,10.175.81.193,1,unknown,0,2014-11-13 14:12:28.447,15,2014-11-13 13:57:29.604,0
2014-11-13 14:12:29.232,61671,2055.7,40.11403,-88.22443,225.0587,-1,-1,10,79.21869,1415909526,0.05723572,-0.9805145,0.1533813,-4.755203,-33.35573,19.43768,158.7408,161.8232,25,-0.1131953,-0.06866109,0.04676751,-2.976614,2.773903,1.400251,-0.06269056,0.006026564,0.07405896,0.004651033,-0.004223239,-0.001042551,172.17.160.76,10.175.81.193,1,unknown,0,2014-11-13 14:12:28.447,15,2014-11-13 13:57:29.604,0
2014-11-13 14:12:29.266,61672,2055.733,40.11403,-88.22443,225.0587,-1,-1,10,79.21869,1415909526,0.05072021,-0.9761353,0.1454163,-4.999191,-33.1168,19.75049,158.4458,161.5282,25,-0.1131337,-0.07200868,0.02552001,-2.984432,2.781635,1.402823,-0.05411248,-0.00262302,0.05487506,-0.004658565,0.008020305,-0.002798929,172.17.160.76,10.175.81.193,1,unknown,0,2014-11-13 14:12:28.447,15,2014-11-13 13:57:29.604,0
2014-11-13 14:12:29.299,61673,2055.767,40.11403,-88.22443,225.0587,-1,-1,10,79.21869,1415909526,0.04867554,-0.9842072,0.1377716,-5.17141,-33.28907,19.64987,158.3084,161.3908,25,-0.08104399,-0.01799977,0.003393134,-2.98961,2.787179,1.40602,-0.04224572,0.03533568,0.01681898,-0.006464866,0.004460447,-0.01046551,172.17.160.76,10.175.81.193,1,unknown,0,2014-11-13 14:12:28.447,15,2014-11-13 13:57:29.604,0
2014-11-13 14:12:29.332,61674,2055.8,40.11403,-88.22443,225.0587,-1,-1,10,79.21869,1415909526,0.04125977,-0.9823303,0.1448364,-4.895851,-33.15125,19.71692,158.0877,161.17,25,-0.01386522,0.004281298,0.00325891,-2.995443,2.795449,1.40722,0.03984896,0.07890797,0.02311112,-0.004590545,0.005633164,-0.0119077,172.17.160.76,10.175.81.193,1,unknown,0,2014-11-13 14:12:28.447,15,2014-11-13 13:57:29.604,0
2014-11-13 14:12:29.366,61675,2055.833,40.11403,-88.22443,225.0587,-1,-1,10,79.21869,1415909526,0.04017639,-0.984024,0.1533813,-5.34362,-32.63445,19.54919,157.8759,160.9583,25,-0.04907247,-0.04886315,-0.001135039,-3.00501,2.806772,1.407116,0.03239739,0.03841942,0.008067983,-0.01167535,0.007752411,-0.00839393,172.17.160.76,10.175.81.193,1,unknown,0,2014-11-13 14:12:28.447,15,2014-11-13 13:57:29.604,0
2014-11-13 14:12:29.399,61676,2055.867,40.11403,-88.22443,225.0587,-1,-1,10,79.21869,1415909526,0.0438385,-0.9738159,0.1622772,-5.550293,-32.22101,19.54919,157.6747,160.7571,25,-0.08110311,-0.09237387,0.004063185,-3.012142,2.813944,1.407786,-0.02740596,-0.02197627,0.02708266,-0.01238699,0.006350672,-0.0003817937,172.17.160.76,10.175.81.193,1,unknown,0,2014-11-13 14:12:28.447,15,2014-11-13 13:57:29.604,0
2014-11-13 14:12:29.433,61677,2055.9,40.11403,-88.22443,225.0587,-1,-1,10,79.21869,1415909526,0.04849243,-0.9753876,0.1523743,-5.584732,-32.39328,19.58276,157.5823,160.6647,25,-0.07349525,-0.04376959,-0.03179974,-3.017555,2.81891,1.40812,-0.01557343,-0.003079836,-0.002581803,-0.01060298,0.01200495,0.00860056,172.17.160.76,10.175.81.193,1,unknown,0,2014-11-13 14:12:28.447,15,2014-11-13 13:57:29.604,0
2014-11-13 14:12:29.466,61678,2055.933,40.11403,-88.22443,225.0587,-1,-1,10,79.21869,1415909526,0.04243469,-0.9757385,0.1493225,-5.619186,-32.35883,19.6163,157.4087,160.4911,25,-0.02984738,-0.03086444,-0.008542622,-3.016496,2.818516,1.408174,0.0004598406,0.03513334,-0.006685946,-0.002910482,0.01141851,-0.001155809,172.17.160.76,10.175.81.193,1,unknown,0,2014-11-13 14:12:28.447,15,2014-11-13 13:57:29.604,0
2014-11-13 14:12:29.499,61679,2055.967,40.11403,-88.22443,225.0587,-1,-1,10,79.21869,1415909526,0.03494263,-0.9692078,0.1658173,-5.44696,-32.73782,19.71692,157.2922,160.3746,25,-0.05220115,-0.02880795,-0.01906291,-3.022123,2.825414,1.407585,0.03025645,0.02566607,0.00801459,-0.01230004,0.01538186,0.002488251,172.17.160.76,10.175.81.193,1,unknown,0,2014-11-13 14:12:28.447,15,2014-11-13 13:57:29.604,0
2014-11-13 14:12:29.532,61680,2056,40.11403,-88.22443,225.0587,-1,-1,10,79.21869,1415909526,0.03715515,-0.97229,0.1559296,-5.412514,-32.84118,19.81754,157.2402,160.3226,25,-0.06278029,-0.02687715,-0.04555018,-3.027804,2.832181,1.406812,0.0004893453,0.04677252,-0.01298997,-0.01476688,0.01737686,0.01031885,172.17.160.76,10.175.81.193,1,unknown,0,2014-11-13 14:12:28.447,15,2014-11-13 13:57:29.604,0
2014-11-13 14:12:29.566,61681,2056.033,40.11403,-88.22443,225.0587,-1,-1,10,79.21869,1415909526,0.04489136,-0.9754333,0.1580505,-5.343628,-33.32352,19.75046,157.1434,160.2257,25,-0.08732691,-0.05873495,-0.04456454,-3.027651,2.833575,1.406674,-0.01547089,0.01796143,-0.03006201,-0.01346218,0.009801277,0.0029182,172.17.160.76,10.175.81.193,1,unknown,0,2014-11-13 14:12:28.447,15,2014-11-13 13:57:29.604,0
2014-11-13 14:12:29.599,61682,2056.067,40.11403,-88.22443,225.0587,-1,-1,10,79.21869,1415909526,0.05343628,-0.9885406,0.151535,-5.34362,-32.91008,19.88464,157.0481,160.1305,25,-0.1011977,-0.05763347,-0.04026087,-3.022203,2.828429,1.407344,-0.04639173,0.00627977,-0.03106832,-0.003744212,0.006843492,0.002827401,172.17.160.76,10.175.81.193,1,unknown,0,2014-11-13 14:12:28.447,15,2014-11-13 13:57:29.604,0
2014-11-13 14:12:29.633,61683,2056.1,40.11403,-88.22443,225.0587,-1,-1,10,79.21869,1415909526,0.05508423,-0.9864349,0.1542206,-5.619179,-32.49664,19.6163,156.9964,160.0788,25,-0.08418785,-0.04794276,-0.02222834,-3.017987,2.824443,1.407928,-0.03151252,0.009579709,-0.01518466,0.003158292,0.001796111,-0.000986625,172.17.160.76,10.175.81.193,1,unknown,0,2014-11-13 14:12:28.447,15,2014-11-13 13:57:29.604,0
2014-11-13 14:12:29.666,61684,2056.134,40.11403,-88.22443,225.0587,-1,-1,10,79.21869,1415909526,0.04608154,-0.9902954,0.1265411,-5.240295,-32.04875,19.58276,156.9355,160.0179,25,-0.08421421,0.01067608,0.001433047,-3.014143,2.823107,1.409621,-0.03793547,0.08735988,0.01284604,-0.0006745899,-0.0004026799,-0.01147798,172.17.160.76,10.175.81.193,1,unknown,0,2014-11-13 14:12:28.447,15,2014-11-13 13:57:29.604,0
2014-11-13 14:12:29.699,61685,2056.167,40.11403,-88.22443,225.0587,-1,-1,10,79.21869,1415909526,0.03652954,-0.9834595,0.1342621,-5.136955,-32.15211,19.48215,156.8938,159.9762,25,-0.05020165,-0.05615701,0.01793746,-3.01709,2.827727,1.411519,0.006717112,0.02800708,0.03571977,-0.008424697,-0.001580001,-0.02332375,172.17.160.76,10.175.81.193,1,unknown,0,2014-11-13 14:12:28.447,15,2014-11-13 13:57:29.604,0
2014-11-13 14:12:29.733,61686,2056.2,40.11403,-88.22443,225.0587,-1,-1,10,79.21869,1415909526,0.03256226,-0.982605,0.1254425,-5.068069,-32.42775,19.54922,156.8689,159.9513,25,-0.05660682,-0.06784243,0.0178999,-3.025125,2.835903,1.412785,-0.002893,0.001422304,0.03243353,-0.01030762,0.001015715,-0.01742996,172.17.160.76,10.175.81.193,1,unknown,0,2014-11-13 14:12:28.447,15,2014-11-13 13:57:29.604,0
2014-11-13 14:12:29.766,61687,2056.233,40.11403,-88.22443,225.0587,-1,-1,10,79.21869,1415909526,0.03074646,-0.9794159,0.1347504,-4.964745,-32.80672,19.44858,156.8281,159.9105,25,-0.01602211,-0.0840174,-0.01099726,-3.035875,2.846378,1.414043,0.03978736,-0.008270537,0.01736351,-0.01427687,0.003654286,-0.01965878,172.17.160.76,10.175.81.193,1,unknown,0,2014-11-13 14:12:28.447,15,2014-11-13 13:57:29.604,0
2014-11-13 14:12:29.800,61688,2056.267,40.11403,-88.22443,225.0587,-1,-1,10,79.21869,1415909526,0.03710938,-0.9773712,0.1536865,-5.205849,-32.91008,19.3479,156.7661,159.8484,25,-0.01597737,-0.07561247,-0.02369095,-3.041202,2.85143,1.413843,0.04301102,-0.01792376,0.005626393,-0.01397506,0.008292133,-0.0150256,172.17.160.76,10.175.81.193,1,unknown,0,2014-11-13 14:12:28.447,15,2014-11-13 13:57:29.604,0
2014-11-13 14:12:29.832,61689,2056.3,40.11403,-88.22443,225.0587,-1,-1,10,79.21869,1415909526,0.05049133,-0.9806061,0.1666718,-4.999191,-32.84118,19.6163,156.7493,159.8317,25,0.01078767,-0.02693787,-0.04901042,-3.04599,2.855996,1.412236,0.05060577,0.009419747,-0.03140673,-0.007374887,0.01008439,0.002185419,172.17.160.76,10.175.81.193,1,unknown,0,2014-11-13 14:12:28.447,15,2014-11-13 13:57:29.604,0
2014-11-13 14:12:29.866,61690,2056.333,40.11403,-88.22443,225.0587,-1,-1,10,79.21869,1415909526,0.04678345,-0.9792175,0.1742859,-5.309189,-32.66891,19.71692,156.6973,159.7797,25,0.0001054612,-0.008780442,-0.0371985,-3.043897,2.854988,1.409477,0.0740848,0.04873982,-0.02916517,0.005084413,0.006410161,0.01260309,172.17.160.76,10.175.81.193,1,unknown,0,2014-11-13 14:12:28.447,15,2014-11-13 13:57:29.604,0
2014-11-13 14:12:29.899,61691,2056.367,40.11403,-88.22443,225.0587,-1,-1,10,79.21869,1415909526,0.05010986,-0.9777069,0.1654205,-4.964745,-32.60001,20.11948,156.6654,159.7478,25,-0.06179652,-0.05541612,-0.02553599,-3.043944,2.857641,1.4053,0.01647131,0.03293266,-0.01523377,0.001103748,0.007241205,0.01423332,172.17.160.76,10.175.81.193,1,unknown,0,2014-11-13 14:12:28.447,15,2014-11-13 13:57:29.604,0
2014-11-13 14:12:29.932,61692,2056.4,40.11403,-88.22443,225.0587,-1,-1,10,79.21869,1415909526,0.04293823,-0.9732819,0.1653595,-4.999191,-32.56557,19.95175,156.6528,159.7351,25,-0.08642224,-0.09026998,0.0009097359,-3.042827,2.856631,1.404894,-0.01559323,-0.01155315,0.001635008,0.003974775,0.009371546,0.004374499,172.17.160.76,10.175.81.193,1,unknown,0,2014-11-13 14:12:28.447,15,2014-11-13 13:57:29.604,0
2014-11-13 14:12:29.966,61693,2056.433,40.11403,-88.22443,225.0587,-1,-1,10,79.21869,1415909526,0.04045105,-0.9687653,0.1600037,-5.033638,-32.66892,20.05243,156.6304,159.7128,25,-0.09702215,-0.07338287,-0.01488387,-3.046614,2.859266,1.405856,-0.03589844,-0.02099511,0.01652213,-0.005139314,0.01683884,0.005834952,172.17.160.76,10.175.81.193,1,unknown,0,2014-11-13 14:12:28.447,15,2014-11-13 13:57:29.604,0
2014-11-13 14:12:29.999,61694,2056.467,40.11403,-88.22443,225.0587,-1,-1,10,79.21869,1415909526,0.04838562,-0.9785767,0.1457062,-5.240303,-32.80673,19.64987,156.6046,159.687,25,-0.08840416,-0.04380208,-0.0370515,-3.044558,2.857436,1.406751,-0.03787486,0.02333126,-0.02357246,-0.002387731,0.0170923,-0.002861374,172.17.160.76,10.175.81.193,1,unknown,0,2014-11-13 14:12:28.447,15,2014-11-13 13:57:29.604,0
2014-11-13 14:12:30.032,61695,2056.5,40.11403,-88.22443,225.0587,-1,-1,10,79.21869,1415909526,0.03886414,-0.9738617,0.1551666,-5.550301,-32.63446,19.8847,156.5457,159.6281,25,-0.06288176,-0.06814284,-0.0224145,-3.040384,2.853753,1.407607,-0.003836193,0.003268205,-0.004698998,-0.004464647,0.00700832,-0.00970972,172.17.160.76,10.175.81.193,1,unknown,0,2014-11-13 14:12:28.447,15,2014-11-13 13:57:29.604,0
2014-11-13 14:12:30.066,61696,2056.533,40.11403,-88.22443,225.0587,-1,-1,10,79.21869,1415909526,0.0501709,-0.9841309,0.1514282,-5.515846,-32.18656,19.98532,156.4868,159.5691,25,-0.06917987,-0.05241634,-0.05096811,-3.038658,2.8522,1.407774,-0.01016883,0.01162803,-0.02373652,-0.004781414,0.00735596,0.002285058,172.17.160.76,10.175.81.193,1,unknown,0,2014-11-13 14:12:28.447,15,2014-11-13 13:57:29.604,0
2014-11-13 14:12:30.099,61697,2056.567,40.11403,-88.22443,225.0587,-1,-1,10,79.21869,1415909526,0.05792236,-0.9917603,0.1462708,-5.17141,-32.25548,19.78403,156.465,159.5474,25,-0.07352961,-0.06391107,-0.02553678,-3.033872,2.847718,1.407826,-0.01013579,0.01367304,-0.03434122,0.00317307,0.002618811,-0.003865989,172.17.160.76,10.175.81.193,1,unknown,0,2014-11-13 14:12:28.447,15,2014-11-13 13:57:29.604,0
2014-11-13 14:12:30.132,61698,2056.6,40.11403,-88.22443,225.0587,-1,-1,10,79.21869,1415909526,0.05606079,-0.9855652,0.1500854,-4.930298,-32.35883,19.54919,156.4539,159.5363,25,-0.06830875,-0.07747988,0.007278153,-3.026042,2.839842,1.408489,-0.01349352,-0.01574341,0.01009519,0.009897287,-0.004903264,-0.008024012,172.17.160.76,10.175.81.193,1,unknown,0,2014-11-13 14:12:28.447,15,2014-11-13 13:57:29.604,0
2014-11-13 14:12:30.166,61699,2056.634,40.11403,-88.22443,225.0587,-1,-1,10,79.21869,1415909526,0.04888916,-0.9846497,0.1477356,-4.861404,-32.84119,19.41507,156.4331,159.5154,25,-0.08002586,-0.0689812,0.0063053,-3.026494,2.839804,1.409038,-0.01248067,-0.00816247,0.02923585,0.008190977,0.001380453,-0.003689673,172.17.160.76,10.175.81.193,1,unknown,0,2014-11-13 14:12:28.447,15,2014-11-13 13:57:29.604,0
2014-11-13 14:12:30.199,61700,2056.667,40.11403,-88.22443,225.0587,-1,-1,10,79.21869,1415909526,0.05241394,-0.9910736,0.1351624,-4.861404,-32.77227,19.54922,156.409,159.4914,25,-0.06190198,-0.06792765,0.006242982,-3.024923,2.838399,1.410834,-0.01029279,0.008717287,0.01339249,0.004765737,-0.002268731,-0.01523643,172.17.160.76,10.175.81.193,1,unknown,0,2014-11-13 14:12:28.447,15,2014-11-13 13:57:29.604,0
2014-11-13 14:12:30.232,61701,2056.7,40.11403,-88.22443,225.0587,-1,-1,10,79.21869,1415909526,0.04255676,-0.986084,0.1490631,-5.412506,-32.70337,19.68344,156.384,159.4664,25,-0.0523202,-0.07641727,0.00828536,-3.027111,2.840341,1.411549,0.004574955,-0.01138427,0.02596784,0.001287954,-0.0006292168,-0.008535594,172.17.160.76,10.175.81.193,1,unknown,0,2014-11-13 14:12:28.447,15,2014-11-13 13:57:29.604,0
2014-11-13 14:12:30.266,61702,2056.733,40.11403,-88.22443,225.0587,-1,-1,10,79.21869,1415909526,0.04164124,-0.9834595,0.1483002,-5.619171,-32.35883,19.48215,156.3282,159.4106,25,-0.03842781,-0.06160371,0.0008809737,-3.032391,2.845463,1.411574,0.02058942,0.004514411,0.02174607,-0.004657632,0.0003665802,-0.00212863,172.17.160.76,10.175.81.193,1,unknown,0,2014-11-13 14:12:28.447,15,2014-11-13 13:57:29.604,0
2014-11-13 14:12:30.299,61703,2056.767,40.11403,-88.22443,225.0587,-1,-1,10,79.21869,1415909526,0.04611206,-0.9826965,0.1581879,-5.65361,-32.25548,19.51566,156.2964,159.3787,25,-0.0309414,-0.05102137,-0.004398743,-3.037356,2.850542,1.411257,0.02381224,0.008706933,0.01432648,-0.001641871,0.003169776,0.000329913,172.17.160.76,10.175.81.193,1,unknown,0,2014-11-13 14:12:28.447,15,2014-11-13 13:57:29.604,0
2014-11-13 14:12:30.332,61704,2056.8,40.11403,-88.22443,225.0587,-1,-1,10,79.21869,1415909526,0.03839111,-0.9755096,0.1646423,-5.4814,-31.9454,20.01889,156.2469,159.3293,25,-0.04162521,-0.05202272,0.003066364,-3.044377,2.858232,1.409917,0.03339243,0.02151689,0.02285024,-0.002686533,0.004710636,0.007944481,172.17.160.76,10.175.81.193,1,unknown,0,2014-11-13 14:12:28.447,15,2014-11-13 13:57:29.604,0
2014-11-13 14:12:30.366,61705,2056.833,40.11403,-88.22443,225.0587,-1,-1,10,79.21869,1415909526,0.03416443,-0.9767914,0.166153,-5.722496,-32.25549,20.3208,156.2095,159.2919,25,-0.06502667,-0.03830105,-0.01057302,-3.051957,2.86626,1.409017,0.007826713,0.01403539,0.01547783,-0.00860418,0.01207342,0.01125187,172.17.160.76,10.175.81.193,1,unknown,0,2014-11-13 14:12:28.447,15,2014-11-13 13:57:29.604,0
2014-11-13 14:12:30.399,61706,2056.867,40.11403,-88.22443,225.0587,-1,-1,10,79.21869,1415909526,0.03520203,-0.9747009,0.1506195,-5.688057,-32.9101,20.01889,156.1635,159.2458,25,-0.07138231,-0.0522395,-0.02760633,-3.056493,2.87156,1.40875,-0.01130611,0.02562164,0.0007518976,-0.009637655,0.01215246,0.004481432,172.17.160.76,10.175.81.193,1,unknown,0,2014-11-13 14:12:28.447,15,2014-11-13 13:57:29.604,0
2014-11-13 14:12:30.432,61707,2056.9,40.11403,-88.22443,225.0587,-1,-1,10,79.21869,1415909526,0.04415894,-0.9819183,0.1400299,-5.929161,-33.08237,19.44858,156.119,159.2014,25,-0.05645342,-0.03841716,-0.02546648,-3.056217,2.871814,1.409179,-0.01232892,0.01593073,-0.01627723,-0.007684676,0.01226737,-0.004475025,172.17.160.76,10.175.81.193,1,unknown,0,2014-11-13 14:12:28.447,15,2014-11-13 13:57:29.604,0
2014-11-13 14:12:30.466,61708,2056.933,40.11403,-88.22443,225.0587,-1,-1,10,79.21869,1415909526,0.04318237,-0.9805298,0.1493073,-5.378067,-33.01347,19.11313,156.0549,159.1373,25,-0.03515133,-0.04689667,-0.02134497,-3.054065,2.870444,1.409514,0.01428618,0.0266469,-0.002520917,0.001148295,0.005103813,-0.01468713,172.17.160.76,10.175.81.193,1,unknown,0,2014-11-13 14:12:28.447,15,2014-11-13 13:57:29.604,0
2014-11-13 14:12:30.499,61709,2056.967,40.11403,-88.22443,225.0587,-1,-1,10,79.21869,1415909526,0.04548645,-0.9787598,0.1526489,-5.378067,-32.73785,18.91183,155.9917,159.074,25,-0.04363909,-0.04380048,-0.03403467,-3.052488,2.869852,1.408983,0.01644534,0.02124414,-0.01423414,0.002350453,0.00733773,-0.001220052,172.17.160.76,10.175.81.193,1,unknown,0,2014-11-13 14:12:28.447,15,2014-11-13 13:57:29.604,0
2014-11-13 14:12:30.532,61710,2057,40.11403,-88.22443,225.0587,-1,-1,10,79.21869,1415909526,0.05140686,-0.9816589,0.1591644,-5.136955,-32.70339,19.34796,155.977,159.0594,25,-0.02659246,-0.04484763,-0.03091957,-3.050536,2.868375,1.408621,0.02285296,0.02440448,-0.01742633,0.0006669554,0.00596719,-0.005024189,172.17.160.76,10.175.81.193,1,unknown,0,2014-11-13 14:12:28.447,15,2014-11-13 13:57:29.604,0
2014-11-13 14:12:30.566,61711,2057.033,40.11403,-88.22443,225.0587,-1,-1,10,79.21869,1415909526,0.04649353,-0.975708,0.166687,-5.446945,-32.66894,19.64987,155.9314,159.0138,25,-0.01598696,-0.04577974,-0.01291899,-3.049428,2.867656,1.408032,0.03773921,0.01703836,-0.00690671,0.004273556,0.003827117,-0.004301913,172.17.160.76,10.175.81.193,1,unknown,0,2014-11-13 14:12:28.447,15,2014-11-13 13:57:29.604,0
2014-11-13 14:12:30.599,61712,2057.067,40.11403,-88.22443,225.0587,-1,-1,10,79.21869,1415909526,0.04545593,-0.9789429,0.1624451,-5.619171,-32.97902,19.8847,155.9074,158.9897,25,-0.04790734,-0.04059456,-0.03187884,-3.050765,2.870094,1.405589,0.01642754,0.02552892,-0.009967243,0.001947702,0.0135754,0.00659078,172.17.160.76,10.175.81.193,1,unknown,0,2014-11-13 14:12:28.447,15,2014-11-13 13:57:29.604,0
2014-11-13 14:12:30.632,61713,2057.1,40.11403,-88.22443,225.0587,-1,-1,10,79.21869,1415909526,0.04167175,-0.9779968,0.1680756,-6.239166,-32.8412,20.01889,155.8408,158.9231,25,-0.05222033,-0.04579359,-0.01702932,-3.049247,2.869285,1.404826,0.01320987,0.02345288,-0.003598036,0.003143185,0.004553863,0.003567657,172.17.160.76,10.175.81.193,1,unknown,0,2014-11-13 14:12:28.447,15,2014-11-13 13:57:29.604,0
2014-11-13 14:12:30.666,61714,2057.134,40.11403,-88.22443,225.0587,-1,-1,10,79.21869,1415909526,0.04582214,-0.9772491,0.1595764,-6.376938,-33.04793,19.8847,155.7484,158.8307,25,-0.07674298,-0.04151495,-0.014792,-3.05007,2.870715,1.404366,-0.002810507,0.0203446,0.005998396,-0.002655752,0.008185648,0.008453509,172.17.160.76,10.175.81.193,1,unknown,0,2014-11-13 14:12:28.447,15,2014-11-13 13:57:29.604,0
2014-11-13 14:12:30.699,61715,2057.167,40.11403,-88.22443,225.0587,-1,-1,10,79.21869,1415909526,0.03857422,-0.9748077,0.1539459,-6.376938,-32.70338,20.01889,155.7034,158.7858,25,-0.06502108,-0.04363802,-0.01378559,-3.049454,2.871185,1.404689,-0.0123851,0.03307608,0.002916145,0.002539734,0.006850548,-0.0002630655,172.17.160.76,10.175.81.193,1,unknown,0,2014-11-13 14:12:28.447,15,2014-11-13 13:57:29.604,0
2014-11-13 14:12:30.732,61716,2057.2,40.11403,-88.22443,225.0587,-1,-1,10,79.21869,1415909526,0.04450989,-0.9754791,0.1550446,-6.170273,-32.77229,20.01889,155.6215,158.7039,25,-0.0661183,-0.05527018,-0.006412359,-3.049477,2.871721,1.405029,-0.005997817,0.0224466,0.002836416,-0.004915174,0.009958333,-0.006815448,172.17.160.76,10.175.81.193,1,unknown,0,2014-11-13 14:12:28.447,15,2014-11-13 13:57:29.604,0
2014-11-13 14:12:30.766,61717,2057.233,40.11403,-88.22443,225.0587,-1,-1,10,79.21869,1415909526,0.03050232,-0.9717865,0.1748962,-6.273598,-32.25549,20.38791,155.5551,158.6375,25,-0.05009939,-0.0393791,-0.01169607,-3.055218,2.878036,1.405276,0.01198502,0.01619349,0.02080753,-0.01161308,0.01471411,0.01017439,172.17.160.76,10.175.81.193,1,unknown,0,2014-11-13 14:12:28.447,15,2014-11-13 13:57:29.604,0
2014-11-13 14:12:30.799,61718,2057.267,40.11403,-88.22443,225.0587,-1,-1,10,79.21869,1415909526,0.04579163,-0.9784393,0.1647949,-6.445824,-32.77229,20.28729,155.5154,158.5978,25,-0.07455413,-0.03846404,-0.03282932,-3.057083,2.881397,1.404516,-0.0145133,0.03925652,-0.02248975,-0.001795386,0.008683419,0.005262932,172.17.160.76,10.175.81.193,1,unknown,0,2014-11-13 14:12:28.447,15,2014-11-13 13:57:29.604,0
2014-11-13 14:12:30.833,61719,2057.3,40.11403,-88.22443,225.0587,-1,-1,10,79.21869,1415909526,0.04469299,-0.9764404,0.162323,-6.376938,-32.9101,20.08606,155.4326,158.5149,25,-0.09270278,-0.05116625,-0.02752084,-3.054855,2.879685,1.404578,-0.02096075,0.0170327,-0.01090661,-0.001275013,0.009059899,0.00470851,172.17.160.76,10.175.81.193,1,unknown,0,2014-11-13 14:12:28.447,15,2014-11-13 13:57:29.604,0
2014-11-13 14:12:30.866,61720,2057.333,40.11403,-88.22443,225.0587,-1,-1,10,79.21869,1415909526,0.05072021,-0.982254,0.1450043,-6.135826,-33.70253,19.78412,155.3555,158.4379,25,-0.08841375,-0.02674453,-0.02953126,-3.052532,2.877743,1.404986,-0.04012418,0.02017394,-0.01824874,0.001647729,0.009844452,0.002982991,172.17.160.76,10.175.81.193,1,unknown,0,2014-11-13 14:12:28.447,15,2014-11-13 13:57:29.604,0
2014-11-13 14:12:30.899,61721,2057.367,40.11403,-88.22443,225.0587,-1,-1,10,79.21869,1415909526,0.04388428,-0.9802704,0.1459656,-5.791389,-33.56472,19.6499,155.3258,158.4082,25,-0.08316813,-0.04995664,-0.007382016,-3.044057,2.870929,1.406913,-0.02327565,0.02352771,0.006155011,0.004901042,0.004972679,-0.0173035,172.17.160.76,10.175.81.193,1,unknown,0,2014-11-13 14:12:28.447,15,2014-11-13 13:57:29.604,0
2014-11-13 14:12:30.933,61722,2057.4,40.11403,-88.22443,225.0587,-1,-1,10,79.21869,1415909526,0.04463196,-0.9815521,0.1546173,-5.515823,-33.56472,19.58282,155.2717,158.3541,25,-0.06822726,-0.04574565,-0.01166172,-3.043049,2.87039,1.408536,-0.02115956,0.0161037,0.008230467,-0.00116318,0.009493475,-0.007191535,172.17.160.76,10.175.81.193,1,unknown,0,2014-11-13 14:12:28.447,15,2014-11-13 13:57:29.604,0
2014-11-13 14:12:30.966,61723,2057.433,40.11403,-88.22443,225.0587,-1,-1,10,79.21869,1415909526,0.04013062,-0.9771118,0.1599274,-5.688049,-33.04792,19.48218,155.22,158.3023,25,-0.08847128,-0.0436343,-0.01475924,-3.042816,2.870749,1.409006,-0.01260558,0.02561447,0.001879343,-0.0001134296,0.009538791,-0.0005344523,172.17.160.76,10.175.81.193,1,unknown,0,2014-11-13 14:12:28.447,15,2014-11-13 13:57:29.604,0
2014-11-13 14:12:30.999,61724,2057.467,40.11403,-88.22443,225.0587,-1,-1,10,79.21869,1415909526,0.03375244,-0.9790955,0.1613312,-5.825829,-32.84119,19.4151,155.1919,158.2742,25,-0.0788799,-0.05214789,-0.01590147,-3.042901,2.87158,1.409505,-0.03500358,0.01820316,0.004047497,-0.002706517,0.009908898,0.005153048,172.17.160.76,10.175.81.193,1,unknown,0,2014-11-13 14:12:28.447,15,2014-11-13 13:57:29.604,0
2014-11-13 14:12:31.032,61725,2057.5,40.11403,-88.22443,225.0587,-1,-1,10,79.21869,1415909526,0.03109741,-0.9798126,0.1638336,-6.583603,-32.97902,19.61639,155.1133,158.1956,25,-0.09799874,-0.03528049,-0.03484773,-3.045483,2.874747,1.409894,-0.01792108,0.02345972,-0.002355267,-0.01024796,0.006385422,0.01245303,172.17.160.76,10.175.81.193,1,unknown,0,2014-11-13 14:12:28.447,15,2014-11-13 13:57:29.604,0
2014-11-13 14:12:31.065,61726,2057.533,40.11403,-88.22443,225.0587,-1,-1,10,79.21869,1415909526,0.03981018,-0.9837341,0.1456299,-6.342499,-32.73785,19.4487,155.071,158.1534,25,-0.1054476,-0.0512797,-0.04339594,-3.045002,2.875225,1.410428,-0.04892329,0.02435387,-0.02448614,-0.01140863,0.007523698,0.004091353,172.17.160.76,10.175.81.193,1,unknown,0,2014-11-13 14:12:28.447,15,2014-11-13 13:57:29.604,0
2014-11-13 14:12:31.099,61727,2057.567,40.11403,-88.22443,225.0587,-1,-1,10,79.21869,1415909526,0.04309082,-0.9820099,0.1486664,-6.790276,-32.77229,19.54929,154.9649,158.0473,25,-0.08626805,-0.04274853,-0.03811543,-3.037226,2.868276,1.412217,-0.0329463,0.01692332,-0.02246086,-0.0007096721,0.00130758,-0.006469912,172.17.160.76,10.175.81.193,1,unknown,0,2014-11-13 14:12:28.447,15,2014-11-13 13:57:29.604,0
2014-11-13 14:12:31.132,61728,2057.6,40.11403,-88.22443,225.0587,-1,-1,10,79.21869,1415909526,0.04922485,-0.985672,0.1367645,-6.411392,-32.53113,19.51572,154.8741,157.9565,25,-0.1033354,-0.03952025,-0.03378859,-3.03345,2.865007,1.412766,-0.03080853,0.02542281,-0.02242407,0.000116445,0.00552931,-0.002725615,172.17.160.76,10.175.81.193,1,unknown,0,2014-11-13 14:12:28.447,15,2014-11-13 13:57:29.604,0
2014-11-13 14:12:31.166,61729,2057.634,40.11403,-88.22443,225.0587,-1,-1,10,79.21869,1415909526,0.04615784,-0.9815063,0.1440735,-6.411392,-33.08238,19.98538,154.806,157.8884,25,-0.08204693,-0.06180558,-0.02867825,-3.022957,2.855466,1.415041,-0.0287363,0.003202104,-0.009812449,0.0002236921,0.004023141,-0.01213158,172.17.160.76,10.175.81.193,1,unknown,0,2014-11-13 14:12:28.447,15,2014-11-13 13:57:29.604,0
2014-11-13 14:12:31.199,61730,2057.667,40.11403,-88.22443,225.0587,-1,-1,10,79.21869,1415909526,0.04208374,-0.9776154,0.1403809,-6.376938,-32.97903,20.01895,154.778,157.8604,25,-0.08850084,-0.06591696,-0.01063054,-3.018707,2.851413,1.415821,-0.02768359,0.008554017,-0.004481497,0.002740619,0.006005501,-0.002653764,172.17.160.76,10.175.81.193,1,unknown,0,2014-11-13 14:12:28.447,15,2014-11-13 13:57:29.604,0
2014-11-13 14:12:31.232,61731,2057.7,40.11403,-88.22443,225.0587,-1,-1,10,79.21869,1415909526,0.03805542,-0.9752502,0.1462555,-6.06694,-32.73785,19.51575,154.7265,157.8089,25,-0.08532023,-0.07652061,-0.007513843,-3.018157,2.850699,1.417002,-0.02902496,-0.01467505,0.01667266,-0.001851901,0.01058166,-0.006371717,172.17.160.76,10.175.81.193,1,unknown,0,2014-11-13 14:12:28.447,15,2014-11-13 13:57:29.604,0
2014-11-13 14:12:31.266,61732,2057.733,40.11403,-88.22443,225.0587,-1,-1,10,79.21869,1415909526,0.03707886,-0.971756,0.1463928,-6.135826,-32.60003,19.51581,154.6733,157.7557,25,-0.08522835,-0.05226454,-0.03180054,-3.018471,2.851065,1.417693,-0.02465016,0.01698492,-0.01183597,-0.004669688,0.015036,0.005649385,172.17.160.76,10.175.81.193,1,unknown,0,2014-11-13 14:12:28.447,15,2014-11-13 13:57:29.604,0
2014-11-13 14:12:31.299,61733,2057.767,40.11403,-88.22443,225.0587,-1,-1,10,79.21869,1415909526,0.03283691,-0.9640198,0.1542206,-6.135826,-32.94456,19.51581,154.6482,157.7305,25,-0.1055275,-0.07237194,-0.02227708,-3.016226,2.849296,1.418378,-0.03640075,-0.004237489,-0.008717223,-0.005862175,0.01884814,0.002667437,172.17.160.76,10.175.81.193,1,unknown,0,2014-11-13 14:12:28.447,15,2014-11-13 13:57:29.604,0
2014-11-13 14:12:31.332,61734,2057.8,40.11403,-88.22443,225.0587,-1,-1,10,79.21869,1415909526,0.0344696,-0.961853,0.1578217,-5.9636,-33.46136,19.6835,154.6132,157.6956,25,-0.111852,-0.06616091,-0.04451181,-3.016381,2.849375,1.418941,-0.04707098,-0.006333377,-0.005502327,-0.01074107,0.02447239,0.009361343,172.17.160.76,10.175.81.193,1,unknown,0,2014-11-13 14:12:28.447,15,2014-11-13 13:57:29.604,0
2014-11-13 14:12:31.366,61735,2057.833,40.11403,-88.22443,225.0587,-1,-1,10,79.21869,1415909526,0.04257202,-0.9664459,0.14711,-5.481392,-33.53027,19.21381,154.5874,157.6697,25,-0.1597473,-0.04823251,-0.06546769,-3.007686,2.841116,1.42039,-0.09170096,0.01463757,-0.04555707,-0.008750172,0.02507199,0.01451229,172.17.160.76,10.175.81.193,1,unknown,0,2014-11-13 14:12:28.447,15,2014-11-13 13:57:29.604,0
2014-11-13 14:12:31.399,61736,2057.867,40.11403,-88.22443,225.0587,-1,-1,10,79.21869,1415909526,0.04907227,-0.9709778,0.1344452,-5.24028,-33.358,19.04608,154.586,157.6684,25,-0.1501855,-0.04922001,-0.05489387,-2.993076,2.827187,1.422503,-0.09616651,0.01777395,-0.04548126,0.00278522,0.01845888,-0.002339425,172.17.160.76,10.175.81.193,1,unknown,0,2014-11-13 14:12:28.447,15,2014-11-13 13:57:29.604,0
2014-11-13 14:12:31.432,61737,2057.9,40.11403,-88.22443,225.0587,-1,-1,10,79.21869,1415909526,0.04859924,-0.9768982,0.1289978,-5.378052,-33.28909,19.18027,154.5862,157.6686,25,-0.1736597,-0.07257753,-0.05386749,-2.973678,2.80823,1.425852,-0.1100753,-0.004454514,-0.03493256,0.002343092,0.01775792,-0.003948139,172.17.160.76,10.175.81.193,1,unknown,0,2014-11-13 14:12:28.447,15,2014-11-13 13:57:29.604,0
2014-11-13 14:12:31.466,61738,2057.933,40.11403,-88.22443,225.0587,-1,-1,10,79.21869,1415909526,0.05865479,-0.9767761,0.1196136,-5.378052,-33.15128,19.04608,154.591,157.6734,25,-0.160831,-0.05457563,-0.06125111,-2.956015,2.790663,1.428786,-0.1078904,0.003924878,-0.05081948,0.003163631,0.01448483,-0.008945326,172.17.160.76,10.175.81.193,1,unknown,0,2014-11-13 14:12:28.447,15,2014-11-13 13:57:29.604,0
2014-11-13 14:12:31.499,61739,2057.967,40.11403,-88.22443,225.0587,-1,-1,10,79.21869,1415909526,0.05924988,-0.9872284,0.127182,-5.619164,-33.25464,18.87836,154.5785,157.6609,25,-0.1448839,-0.05340916,-0.04644393,-2.936192,2.771263,1.431472,-0.09194571,0.01041148,-0.03492524,0.006073801,0.01263366,-0.01068514,172.17.160.76,10.175.81.193,1,unknown,0,2014-11-13 14:12:28.447,15,2014-11-13 13:57:29.604,0
2014-11-13 14:12:31.532,61740,2058,40.11403,-88.22443,225.0587,-1,-1,10,79.21869,1415909526,0.05984497,-0.9905701,0.1230164,-5.515831,-32.94456,18.57645,154.552,157.6344,25,-0.1630254,-0.06080636,-0.04216903,-2.915471,2.751251,1.434355,-0.09214439,0.01571258,-0.02743003,0.01104967,0.006834869,-0.002129651,172.17.160.76,10.175.81.193,1,unknown,0,2014-11-13 14:12:28.447,15,2014-11-13 13:57:29.604,0
2014-11-13 14:12:31.566,61741,2058.033,40.11403,-88.22443,225.0587,-1,-1,10,79.21869,1415909526,0.06512451,-0.9821167,0.1161346,-5.619164,-33.04793,18.34161,154.5341,157.6165,25,-0.1704751,-0.07360977,-0.04963893,-2.904219,2.740287,1.435909,-0.104952,0.005108459,-0.02531636,0.007314822,0.0003464202,-0.0007782153,172.17.160.76,10.175.81.193,1,unknown,0,2014-11-13 14:12:28.447,15,2014-11-13 13:57:29.604,0
2014-11-13 14:12:31.599,61742,2058.067,40.11403,-88.22443,225.0587,-1,-1,10,79.21869,1415909526,0.06321716,-0.9747467,0.1225128,-5.825821,-33.04793,18.00613,154.4763,157.5586,25,-0.1641091,-0.05863269,-0.03578463,-2.877628,2.713577,1.439416,-0.1060446,-0.006540889,-0.02007011,0.01074973,0.01059285,-0.0007309712,172.17.160.76,10.175.81.193,1,unknown,0,2014-11-13 14:12:28.447,15,2014-11-13 13:57:29.604,0
2014-11-13 14:12:31.632,61743,2058.1,40.11403,-88.22443,225.0587,-1,-1,10,79.21869,1415909526,0.06007385,-0.9664612,0.1174927,-5.446938,-33.2891,17.50293,154.4519,157.5342,25,-0.1620081,-0.05323286,-0.02408776,-2.866578,2.702658,1.440853,-0.1060368,0.007280424,-0.0189378,0.008149672,0.01682251,0.005218035,172.17.160.76,10.175.81.193,1,unknown,0,2014-11-13 14:12:28.447,15,2014-11-13 13:57:29.604,0
2014-11-13 14:12:31.666,61744,2058.134,40.11403,-88.22443,225.0587,-1,-1,10,79.21869,1415909526,0.05830383,-0.9534607,0.1242371,-5.756935,-33.80591,17.73782,154.3898,157.4721,25,-0.1918571,-0.04363856,-0.0218025,-2.844233,2.680969,1.444893,-0.1220785,0.01274434,0.0002545443,0.007125363,0.03000275,0.01147915,172.17.160.76,10.175.81.193,1,unknown,0,2014-11-13 14:12:28.447,15,2014-11-13 13:57:29.604,0
2014-11-13 14:12:31.699,61745,2058.167,40.11403,-88.22443,225.0587,-1,-1,10,79.21869,1415909526,0.04853821,-0.9462585,0.1131287,-5.515831,-33.90927,17.83844,154.3506,157.433,25,-0.2526251,-0.06808797,-0.02701111,-2.822456,2.660063,1.449295,-0.1839701,0.004111727,-0.009070632,-0.005000863,0.04586576,0.0108967,172.17.160.76,10.175.81.193,1,unknown,0,2014-11-13 14:12:28.447,15,2014-11-13 13:57:29.604,0
2014-11-13 14:12:31.732,61746,2058.2,40.11403,-88.22443,225.0587,-1,-1,10,79.21869,1415909526,0.05012512,-0.9472046,0.1162872,-5.9636,-33.53028,18.0061,154.2926,157.3749,25,-0.2888105,-0.07248006,-0.04812838,-2.799786,2.637398,1.454126,-0.2212561,-0.01189643,-0.02069011,-0.008949202,0.04837746,0.01081082,172.17.160.76,10.175.81.193,1,unknown,0,2014-11-13 14:12:28.447,15,2014-11-13 13:57:29.604,0
2014-11-13 14:12:31.766,61747,2058.233,40.11403,-88.22443,225.0587,-1,-1,10,79.21869,1415909526,0.06019592,-0.9651337,0.1122589,-5.894714,-33.39247,17.40225,154.2556,157.3379,25,-0.2908404,-0.01311713,-0.06691485,-2.766575,2.604699,1.458877,-0.2318604,0.03141186,-0.05012436,-0.006418813,0.04209868,0.01814875,172.17.160.76,10.175.81.193,1,unknown,0,2014-11-13 14:12:28.447,15,2014-11-13 13:57:29.604,0
2014-11-13 14:12:31.799,61748,2058.267,40.11403,-88.22443,225.0587,-1,-1,10,79.21869,1415909526,0.04992676,-0.9805298,0.08068848,-5.894714,-33.87481,17.46936,152.2645,155.3469,25,-0.3110844,-0.006747385,-0.06892847,-2.723412,2.563654,1.46323,-0.2424872,0.07073314,-0.04987859,-0.0005906304,0.02518035,0.01444678,172.17.160.76,10.175.81.193,1,unknown,0,2014-11-13 14:12:28.447,15,2014-11-13 13:57:29.604,0
2014-11-13 14:12:31.832,61749,2058.3,40.11403,-88.22443,225.0587,-1,-1,10,79.21869,1415909526,0.06433105,-1.000671,0.06256104,-5.722504,-34.46052,17.16748,152.4747,155.5571,25,-0.3632879,-0.05151832,-0.09125987,-2.669092,2.511032,1.468914,-0.2861775,0.0185436,-0.06909525,-0.01003918,0.01428466,-0.00145957,172.17.160.76,10.175.81.193,1,unknown,0,2014-11-13 14:12:28.447,15,2014-11-13 13:57:29.604,0
2014-11-13 14:12:31.866,61750,2058.333,40.11403,-88.22443,225.0587,-1,-1,10,79.21869,1415909526,0.07498169,-1.018799,0.03649902,-5.4814,-34.63279,17.06683,153.1,156.1823,25,-0.2758859,-0.01213389,-0.07651901,-2.570201,2.413331,1.476575,-0.2701907,0.03238086,-0.06483576,0.006519415,-0.01366707,-0.02656074,172.17.160.76,10.175.81.193,1,unknown,0,2014-11-13 14:12:28.447,15,2014-11-13 13:57:29.604,0
2014-11-13 14:12:31.899,61751,2058.367,40.11403,-88.22443,225.0587,-1,-1,10,79.21869,1415909526,0.07829285,-1.029037,0.02445984,-4.826973,-34.66726,16.63074,154.3574,157.4398,25,-0.2567703,-0.007701329,-0.05109168,-2.499913,2.344801,1.480598,-0.2073169,0.06008026,-0.05112679,0.009666665,-0.02922683,-0.02721211,172.17.160.76,10.175.81.193,1,unknown,0,2014-11-13 14:12:28.447,15,2014-11-13 13:57:29.604,0
2014-11-13 14:12:31.932,61752,2058.4,40.11403,-88.22443,225.0587,-1,-1,10,79.21869,1415909526,0.07447815,-1.0289,0.02104187,-4.75808,-34.94287,15.75854,154.3709,157.4533,25,-0.1982694,-0.03082023,-0.01321913,-2.435883,2.282727,1.484139,-0.1797091,0.05074994,-0.01837435,0.01380424,-0.03434625,-0.03466089,172.17.160.76,10.175.81.193,1,unknown,0,2014-11-13 14:12:28.447,15,2014-11-13 13:57:29.604,0
2014-11-13 14:12:31.966,61753,2058.433,40.11403,-88.22443,225.0587,-1,-1,10,79.21869,1415909526,0.07180786,-1.022293,0.02432251,-4.86142,-35.04624,15.72501,154.0951,157.1775,25,-0.1652758,-0.0477345,0.0003675162,-2.389912,2.238026,1.487244,-0.1275842,0.03396124,0.01318586,0.00892063,-0.03238864,-0.03060136,172.17.160.76,10.175.81.193,1,unknown,0,2014-11-13 14:12:28.447,15,2014-11-13 13:57:29.604,0
2014-11-13 14:12:31.999,61754,2058.467,40.11403,-88.22443,225.0587,-1,-1,10,79.21869,1415909526,0.05952454,-1.011658,0.02311707,-5.205856,-35.11514,15.25534,152.7195,155.8019,25,-0.1663538,-0.05941459,0.001371528,-2.336584,2.185696,1.491516,-0.1084343,0.007425751,0.01828136,0.0007692965,-0.02569354,-0.01968616,172.17.160.76,10.175.81.193,1,unknown,0,2014-11-13 14:12:28.447,15,2014-11-13 13:57:29.604,0
2014-11-13 14:12:32.032,61755,2058.5,40.11403,-88.22443,225.0587,-1,-1,10,79.21869,1415909526,0.04580688,-1.009247,0.02250671,-5.27475,-34.90843,15.12112,152.5079,155.5903,25,-0.1256988,-0.03743978,-0.04112427,-2.309215,2.158545,1.493618,-0.1020313,0.01378176,0.0161688,-0.004638778,-0.01463448,-0.01963496,172.17.160.76,10.175.81.193,1,unknown,0,2014-11-13 14:12:28.447,15,2014-11-13 13:57:29.604,0
2014-11-13 14:12:32.066,61756,2058.533,40.11403,-88.22443,225.0587,-1,-1,10,79.21869,1415909526,0.05245972,-1.011063,0.0370636,-5.068085,-34.6328,15.05402,153.3233,156.4057,25,-0.0999511,-0.01763066,-0.08994453,-2.275665,2.125798,1.495642,-0.05277792,0.03449773,-0.0518368,-0.0168775,-0.005767707,-0.01641737,172.17.160.76,10.175.81.193,1,unknown,0,2014-11-13 14:12:28.447,15,2014-11-13 13:57:29.604,0
2014-11-13 14:12:32.099,61757,2058.567,40.11403,-88.22443,225.0587,-1,-1,10,79.21869,1415909526,0.05023193,-1.007935,0.03729248,-5.240311,-34.66726,14.68503,153.0454,156.1277,25,-0.01950419,0.1045925,-0.2222874,-2.226313,2.080687,1.492753,0.009487865,0.1302526,-0.1725676,-0.01454928,-0.01377073,-0.002133521,172.17.160.76,10.175.81.193,1,unknown,0,2014-11-13 14:12:28.447,15,2014-11-13 13:57:29.604,0
2014-11-13 14:12:32.132,61758,2058.6,40.11403,-88.22443,225.0587,-1,-1,10,79.21869,1415909526,0.04188538,-0.9982147,0.03509521,-4.96476,-34.66726,14.75208,153.0561,156.1385,25,0.1176079,0.3296439,-0.382961,-2.215591,2.073742,1.489491,0.0705524,0.2263519,-0.2476499,-0.01886692,-0.007423354,0.0003276423,172.17.160.76,10.175.81.193,1,unknown,0,2014-11-13 14:12:28.447,15,2014-11-13 13:57:29.604,0
2014-11-13 14:12:32.166,61759,2058.634,40.11403,-88.22443,225.0587,-1,-1,10,79.21869,1415909526,0.06411743,-1.011246,0.02902222,-4.826981,-34.87397,14.81915,153.341,156.4234,25,0.2495142,0.3627588,-0.6337903,-2.208993,2.082789,1.474599,0.2633881,0.4644868,-0.5018628,-0.04348019,-0.01246644,-0.02021582,172.17.160.76,10.175.81.193,1,unknown,0,2014-11-13 14:12:28.447,15,2014-11-13 13:57:29.604,0
2014-11-13 14:12:32.199,61760,2058.667,40.11403,-88.22443,225.0587,-1,-1,10,79.21869,1415909526,0.09695435,-1.01088,0.04447937,-4.069206,-34.66726,15.423,155.3959,158.4782,25,0.2208264,0.2220064,-0.7012974,-2.203884,2.086724,1.462013,0.3074143,0.4285361,-0.6168554,-0.03031979,-0.01715682,-0.02453943,172.17.160.76,10.175.81.193,1,unknown,0,2014-11-13 14:12:28.447,15,2014-11-13 13:57:29.604,0
2014-11-13 14:12:32.232,61761,2058.7,40.11403,-88.22443,225.0587,-1,-1,10,79.21869,1415909526,0.1101837,-0.9818573,0.05026245,-3.242538,-34.52944,15.82553,156.825,159.9074,25,0.06418858,-0.1358042,-0.8161737,-2.170563,2.064085,1.433147,0.2051554,0.1111247,-0.7253527,-0.01998038,-0.01885812,-0.0110502,172.17.160.76,10.175.81.193,1,unknown,0,2014-11-13 14:12:28.447,15,2014-11-13 13:57:29.604,0
2014-11-13 14:12:32.266,61762,2058.733,40.11403,-88.22443,225.0587,-1,-1,10,79.21869,1415909526,0.1032867,-0.9602509,0.04600525,-2.691437,-34.04709,16.29526,158.3042,161.3866,25,-0.06655213,-0.4624686,-1.026516,-2.101968,1.992213,1.401801,0.04448437,-0.2792014,-0.925303,-0.04938182,0.01383037,-0.01382218,172.17.160.76,10.175.81.193,1,unknown,0,2014-11-13 14:12:28.447,15,2014-11-13 13:57:29.604,0
2014-11-13 14:12:32.299,61763,2058.767,40.11403,-88.22443,225.0587,-1,-1,10,79.21869,1415909526,0.1892548,-0.9424286,0.07566833,-0.4181213,-33.77147,16.36234,163.3848,166.4672,25,-0.06162155,-0.7260278,-1.314523,-2.0555,1.937925,1.382838,-0.04363723,-0.5174677,-1.105618,-0.07111496,0.02213698,-0.02106331,172.17.160.76,10.175.81.193,1,unknown,0,2014-11-13 14:12:28.447,15,2014-11-13 13:57:29.604,0
2014-11-13 14:12:32.332,61764,2058.8,40.11403,-88.22443,225.0587,-1,-1,10,79.21869,1415909526,0.2069855,-0.9446564,0.06913757,2.475197,-34.04709,16.36234,169.1355,172.2179,25,-0.07267953,-0.7010788,-1.529831,-1.962746,1.815478,1.319559,-4.134703e-05,-0.61143,-1.445951,-0.03878991,0.004829961,0.03381662,172.17.160.76,10.175.81.193,1,unknown,0,2014-11-13 14:12:28.447,15,2014-11-13 13:57:29.604,0
2014-11-13 14:12:32.366,61765,2058.833,40.11403,-88.22443,225.0587,-1,-1,10,79.21869,1415909526,0.2561188,-0.9174042,0.04110718,4.23185,-34.15046,15.85913,173.6346,176.7169,25,-0.07386491,-0.9451085,-1.905815,-1.923614,1.757268,1.272672,-0.01309598,-0.7848353,-1.756768,-0.07937663,0.02708668,0.0005529708,172.17.160.76,10.175.81.193,1,unknown,0,2014-11-13 14:12:28.447,15,2014-11-13 13:57:29.604,0
2014-11-13 14:12:32.399,61766,2058.867,40.11403,-88.22443,225.0587,-1,-1,10,79.21869,1415909526,0.3888702,-0.9048615,0.03916931,7.676266,-34.01265,15.52368,181.4051,184.4874,25,-0.1870868,-1.198414,-2.250645,-1.893806,1.700733,1.214011,0.0006247571,-1.044796,-2.130768,-0.02741124,0.04870337,0.006579487,172.17.160.76,10.175.81.193,1,unknown,0,2014-11-13 14:12:28.447,15,2014-11-13 13:57:29.604,0
2014-11-13 14:12:32.432,61767,2058.9,40.11403,-88.22443,225.0587,-1,-1,10,79.21869,1415909526,0.567276,-0.922699,-0.008239746,9.364037,-33.70256,15.69138,185.053,188.1353,25,-0.1775314,-1.156802,-2.227109,-1.868199,1.643444,1.148053,-0.1558304,-1.137979,-2.238944,0.02766202,0.002329356,-0.01776971,172.17.160.76,10.175.81.193,1,unknown,0,2014-11-13 14:12:28.447,15,2014-11-13 13:57:29.604,0
2014-11-13 14:12:32.466,61768,2058.933,40.11403,-88.22443,225.0587,-1,-1,10,79.21869,1415909526,0.6040649,-0.9699249,-0.07014465,13.29067,-32.80677,15.3559,191.5182,194.6005,25,0.3795502,-0.3931183,-1.525657,-1.857218,1.596906,1.065316,0.1300421,-0.6546795,-1.819246,0.1674269,-0.09862957,-0.04494458,172.17.160.76,10.175.81.193,1,unknown,0,2014-11-13 14:12:28.447,15,2014-11-13 13:57:29.604,0
2014-11-13 14:12:32.499,61769,2058.967,40.11403,-88.22443,225.0587,-1,-1,10,79.21869,1415909526,0.4461823,-0.9877014,-0.09083557,16.83842,-31.87652,15.32233,200.0901,203.1725,25,0.769612,-0.1662601,-1.430389,-1.868103,1.597496,1.032996,0.4374455,-0.3273447,-1.508721,0.09199984,-0.1110872,-0.08381987,172.17.160.76,10.175.81.193,1,unknown,0,2014-11-13 14:12:28.447,15,2014-11-13 13:57:29.604,0
2014-11-13 14:12:32.532,61770,2059,40.11403,-88.22443,225.0587,-1,-1,10,79.21869,1415909526,0.4301758,-0.6518707,0.1194305,20.48951,-30.15384,16.59708,208.6481,211.7305,25,1.783965,0.1880021,-3.992616,-1.940836,1.659939,0.9712662,1.893714,0.7460344,-1.956467,-0.4761072,0.08921169,-0.1574104,172.17.160.76,10.175.81.193,1,unknown,0,2014-11-13 14:12:28.447,15,2014-11-13 13:57:29.604,0
2014-11-13 14:12:32.566,61771,2059.033,40.11403,-88.22443,225.0587,-1,-1,10,79.21869,1415909526,0.8218994,-0.7465973,0.1481781,22.38395,-29.01687,17.10025,213.5154,216.5977,25,-0.21117,-0.8061325,-3.355614,-2.006572,1.721807,0.8206662,0.3742906,-0.4480561,-3.574764,-0.07334381,0.04905928,0.1066245,172.17.160.76,10.175.81.193,1,unknown,0,2014-11-13 14:12:28.447,15,2014-11-13 13:57:29.604,0
2014-11-13 14:12:32.599,61772,2059.067,40.11403,-88.22443,225.0587,-1,-1,10,79.21869,1415909526,0.9388275,-0.7227478,0.009567261,26.93058,-25.77823,18.44214,222.7354,225.8178,25,-0.2431937,-0.5377268,-2.566462,-1.988489,1.695125,0.7562567,-0.3874796,-0.6809136,-3.078488,0.1001044,-0.06039396,0.05797298,172.17.160.76,10.175.81.193,1,unknown,0,2014-11-13 14:12:28.447,15,2014-11-13 13:57:29.604,0
2014-11-13 14:12:32.632,61773,2059.1,40.11403,-88.22443,225.0587,-1,-1,10,79.21869,1415909526,0.8800659,-0.641983,-0.08384705,31.13277,-22.53959,17.70413,229.2965,232.3788,25,0.1510745,-0.6726836,-1.837287,-1.964319,1.656047,0.6380825,0.08683251,-0.4664116,-1.93698,0.137849,-0.09307963,-0.1139409,172.17.160.76,10.175.81.193,1,unknown,0,2014-11-13 14:12:28.447,15,2014-11-13 13:57:29.604,0
2014-11-13 14:12:32.666,61774,2059.134,40.11403,-88.22443,225.0587,-1,-1,10,79.21869,1415909526,0.8672791,-0.500412,-0.01544189,32.78609,-21.29926,17.63705,233.907,236.9894,25,0.3544521,-0.967078,-1.83323,-1.966528,1.644593,0.6016223,0.3174442,-0.7308674,-1.765153,0.05789123,-0.07600237,-0.144631,172.17.160.76,10.175.81.193,1,unknown,0,2014-11-13 14:12:28.447,15,2014-11-13 13:57:29.604,0
2014-11-13 14:12:32.699,61775,2059.167,40.11403,-88.22443,225.0587,-1,-1,10,79.21869,1415909526,0.8977509,-0.4167938,0.08724976,34.99052,-18.61189,16.49649,238.867,241.9494,25,0.2621855,-0.8809369,-1.970424,-1.98042,1.617519,0.5274839,0.3914862,-0.8236707,-1.949556,0.03519739,0.02017606,-0.01789669,172.17.160.76,10.175.81.193,1,unknown,0,2014-11-13 14:12:28.447,15,2014-11-13 13:57:29.604,0
2014-11-13 14:12:32.732,61776,2059.2,40.11403,-88.22443,225.0587,-1,-1,10,79.21869,1415909526,0.8679352,-0.312027,0.1170349,36.86115,-15.69379,15.88095,245.6149,248.6972,25,-0.005103416,-0.5126553,-2.326265,-1.987226,1.598533,0.4679213,0.1861367,-0.6563643,-2.039193,-0.03397966,0.04186759,0.04694879,172.17.160.76,10.175.81.193,1,unknown,0,2014-11-13 14:12:28.447,15,2014-11-13 13:57:29.604,0
2014-11-13 14:12:32.766,61777,2059.233,40.11403,-88.22443,225.0587,-1,-1,10,79.21869,1415909526,0.9589844,-0.3436584,0.05331421,37.82538,-13.62656,15.47836,248.0559,251.1382,25,-0.1559995,-0.1827019,-2.402512,-1.986515,1.582541,0.3752512,-0.09680253,-0.1366905,-2.469543,-0.03917712,0.07587208,0.08962868,172.17.160.76,10.175.81.193,1,unknown,0,2014-11-13 14:12:28.447,15,2014-11-13 13:57:29.604,0
2014-11-13 14:12:32.799,61778,2059.267,40.11403,-88.22443,225.0587,-1,-1,10,79.21869,1415909526,1.005829,-0.2566071,0.03781128,40.13263,-10.21561,15.04224,255.1501,258.2325,25,-0.3738396,-0.3674544,-1.974892,-1.982167,1.577522,0.3035254,-0.1926174,-0.2095173,-2.251909,0.04332196,0.01084611,0.03456678,172.17.160.76,10.175.81.193,1,unknown,0,2014-11-13 14:12:28.447,15,2014-11-13 13:57:29.604,0
2014-11-13 14:12:32.832,61779,2059.3,40.11403,-88.22443,225.0587,-1,-1,10,79.21869,1415909526,0.9987946,-0.2186584,0.03128052,41.26904,-8.734093,14.87448,257.3193,260.4017,25,-0.2420257,-0.2185965,-1.812195,-1.97619,1.570156,0.2623557,-0.3161712,-0.3018146,-1.957902,0.05658788,-0.02196996,0.05164418,172.17.160.76,10.175.81.193,1,unknown,0,2014-11-13 14:12:28.447,15,2014-11-13 13:57:29.604,0
2014-11-13 14:12:32.866,61780,2059.333,40.11403,-88.22443,225.0587,-1,-1,10,79.21869,1415909526,0.9553833,-0.1170349,0.01618958,42.50876,-6.460136,14.13635,259.704,262.7863,25,-0.2322974,-0.1726224,-1.491421,-1.967772,1.560503,0.1763514,-0.1531956,-0.1360196,-1.519247,-0.00538851,0.002510871,0.02162384,172.17.160.76,10.175.81.193,4,unknown,0,2014-11-13 14:12:28.447,15,2014-11-13 13:57:29.604,0
2014-11-13 14:12:32.899,61781,2059.367,40.11403,-88.22443,225.0587,-1,-1,10,79.21869,1415909526,0.9889221,-0.08636475,0.01152039,43.23193,-3.945,14.03571,262.2125,265.2949,25,-0.1535094,-0.02123711,-1.4198,-1.96384,1.558194,0.1321379,-0.1031701,0.01851947,-1.45387,-0.02968643,0.02924517,0.02105257,172.17.160.76,10.175.81.193,4,unknown,0,2014-11-13 14:12:28.447,15,2014-11-13 13:57:29.604,0
2014-11-13 14:12:32.933,61782,2059.4,40.11403,-88.22443,225.0587,-1,-1,10,79.21869,1415909526,1.03067,-0.05197144,-0.003143311,43.3518,-2.754684,14.26135,264.018,267.1004,25,-0.1107803,0.187722,-1.042033,-1.960484,1.562595,0.07983774,-0.07515299,0.230146,-1.146093,0.02035448,-0.01152513,0.0107232,172.17.160.76,10.175.81.193,4,unknown,0,2014-11-13 14:12:28.447,15,2014-11-13 13:57:29.604,0
2014-11-13 14:12:32.966,61783,2059.433,40.11403,-88.22443,225.0587,-1,-1,10,79.21869,1415909526,0.9363403,0.01557922,-0.02183533,43.55839,-1.790016,14.52982,265.0972,268.1796,25,-0.06863312,0.1633887,-0.8841586,-1.959327,1.57089,0.05074972,-0.01829624,0.3074789,-0.8911427,-0.01412388,0.02935038,-0.01719909,172.17.160.76,10.175.81.193,4,unknown,0,2014-11-13 14:12:28.447,15,2014-11-13 13:57:29.604,0
2014-11-13 14:12:32.999,61784,2059.467,40.11403,-88.22443,225.0587,-1,-1,10,79.21869,1415909526,0.9887543,-0.01290894,0.0161438,43.66169,-0.6530762,14.02649,266.1442,269.2265,25,-0.08307038,0.03708984,-0.7244858,-1.958264,1.575828,0.0252885,-0.06772778,0.07107823,-0.8210832,-0.05241724,0.03685197,-0.02015185,172.17.160.76,10.175.81.193,4,unknown,0,2014-11-13 14:12:28.447,15,2014-11-13 13:57:29.604,0
2014-11-13 14:12:33.032,61785,2059.5,40.11403,-88.22443,225.0587,-1,-1,10,79.21869,1415909526,1.029434,0.01852417,0.01005554,43.66169,0.17379,14.16071,267.3132,270.3956,25,0.01968742,0.08337718,-0.4974697,-1.957206,1.578609,0.003585034,0.02238312,0.1500086,-0.6341843,0.02619051,-0.002091243,0.002563046,172.17.160.76,10.175.81.193,4,unknown,0,2014-11-13 14:12:28.447,15,2014-11-13 13:57:29.604,0
2014-11-13 14:12:33.066,61786,2059.533,40.11403,-88.22443,225.0587,-1,-1,10,79.21869,1415909526,1.022018,0.05863953,0.01286316,43.52396,1.689713,14.02652,269.4438,272.5261,25,0.09794813,0.09981208,-0.2853798,-1.959167,1.583069,-0.01147072,0.09739816,0.1505936,-0.4104895,0.02008433,0.01337084,-0.003086059,172.17.160.76,10.175.81.193,4,unknown,0,2014-11-13 14:12:28.447,15,2014-11-13 13:57:29.604,0
2014-11-13 14:12:33.098,61787,2059.567,40.11403,-88.22443,225.0587,-1,-1,10,79.21869,1415909526,0.9734192,0.0713501,0.0440979,43.55839,3.033363,14.66406,271.7769,274.8592,25,0.05388081,-0.06215286,-0.207518,-1.96472,1.588078,-0.0236377,0.140348,0.06517115,-0.1807666,-0.004148996,0.05686988,0.001965307,172.17.160.76,10.175.81.193,4,unknown,0,2014-11-13 14:12:28.447,15,2014-11-13 13:57:29.604,0
2014-11-13 14:12:33.132,61788,2059.6,40.11403,-88.22443,225.0587,-1,-1,10,79.21869,1415909526,1.010422,0.05151367,0.05432129,43.42067,3.308983,14.66406,272.2566,275.339,25,-0.05937438,-0.09553238,-0.1319045,-1.967909,1.589509,-0.03109023,0.0838119,-0.01347919,-0.1873464,-0.02592256,0.04026487,0.02539556,172.17.160.76,10.175.81.193,4,unknown,0,2014-11-13 14:12:28.447,15,2014-11-13 13:57:29.604,0
2014-11-13 14:12:33.166,61789,2059.634,40.11403,-88.22443,225.0587,-1,-1,10,79.21869,1415909526,1.000381,0.03596497,0.03631592,43.52396,3.550156,14.83185,272.6172,275.6996,25,-0.03327966,0.02401692,0.08304668,-1.968199,1.591948,-0.0355631,0.01493014,0.06380217,0.05214981,0.02905409,-0.01709247,0.02071801,172.17.160.76,10.175.81.193,4,unknown,0,2014-11-13 14:12:28.447,15,2014-11-13 13:57:29.604,0
2014-11-13 14:12:33.199,61790,2059.667,40.11403,-88.22443,225.0587,-1,-1,10,79.21869,1415909526,0.9632721,0.04495239,0.01091003,43.17965,3.274536,15.10034,272.098,275.1803,25,-0.009817477,0.048469,0.08627204,-1.968745,1.594484,-0.03294045,0.03078621,0.1035275,0.1075004,0.001204345,0.003030471,0.01264333,172.17.160.76,10.175.81.193,4,unknown,0,2014-11-13 14:12:28.447,15,2014-11-13 13:57:29.604,0
2014-11-13 14:12:33.232,61791,2059.7,40.11403,-88.22443,225.0587,-1,-1,10,79.21869,1415909526,0.9494781,0.03129578,0.01623535,43.11079,2.998917,15.10034,271.6063,274.6887,25,0.00510741,-0.1133575,0.04502766,-1.97052,1.596201,-0.03139444,0.06811922,0.0363782,0.08258603,-0.04537307,0.008176754,-0.01823273,172.17.160.76,10.175.81.193,4,unknown,0,2014-11-13 14:12:28.447,15,2014-11-13 13:57:29.604,0
2014-11-13 14:12:33.266,61792,2059.733,40.11403,-88.22443,225.0587,-1,-1,10,79.21869,1415909526,0.9811554,0.02780151,0.03089905,42.66508,2.721977,15.43939,271.786,274.8684,25,0.03504907,-0.1061499,0.01629349,-1.973467,1.593757,-0.02973212,0.08950876,-0.04791637,0.03747619,-0.03194838,0.003719523,0.0002146694,172.17.160.76,10.175.81.193,4,unknown,0,2014-11-13 14:12:28.447,15,2014-11-13 13:57:29.604,0
2014-11-13 14:12:33.299,61793,2059.767,40.11403,-88.22443,225.0587,-1,-1,10,79.21869,1415909526,0.9963531,0.0405426,0.02375793,42.8028,2.997581,15.03671,272.2598,275.3422,25,-0.02374741,-0.1142299,0.06848372,-1.975977,1.593545,-0.02849047,0.06923793,-0.01592267,0.05152066,-0.009207969,-0.003279092,0.008634283,172.17.160.76,10.175.81.193,4,unknown,0,2014-11-13 14:12:28.447,15,2014-11-13 13:57:29.604,0
2014-11-13 14:12:33.333,61794,2059.8,40.11403,-88.22443,225.0587,-1,-1,10,79.21869,1415909526,0.9994659,0.03739929,0.02886963,42.83723,3.30764,14.936,272.7455,275.8278,25,-0.03310788,-0.07542019,0.0007882957,-1.97747,1.592172,-0.02712252,0.02335758,-0.0456043,0.0578974,-0.008650661,0.02309748,0.009257961,172.17.160.76,10.175.81.193,4,unknown,0,2014-11-13 14:12:28.447,15,2014-11-13 13:57:29.604,0
2014-11-13 14:12:33.366,61795,2059.833,40.11403,-88.22443,225.0587,-1,-1,10,79.21869,1415909526,1.010132,0.0188446,0.01838684,42.8028,2.859779,15.03668,272.9297,276.0121,25,-0.06190278,-0.07750704,0.004069577,-1.977976,1.59221,-0.02745869,0.02457413,-0.009778976,0.0177408,7.208881e-05,0.00994405,0.007465539,172.17.160.76,10.175.81.193,4,unknown,0,2014-11-13 14:12:28.447,15,2014-11-13 13:57:29.604,0
2014-11-13 14:12:33.399,61796,2059.867,40.11403,-88.22443,225.0587,-1,-1,10,79.21869,1415909526,0.9888916,0.03813171,0.01127625,43.0438,2.894226,15.20447,272.9788,276.0612,25,-0.06837586,-0.08157049,0.0284865,-1.978233,1.591619,-0.02612138,0.01597028,-0.002137671,0.04435151,0.0137567,-0.01278222,-0.005738181,172.17.160.76,10.175.81.193,4,unknown,0,2014-11-13 14:12:28.447,15,2014-11-13 13:57:29.604,0
2014-11-13 14:12:33.432,61797,2059.9,40.11403,-88.22443,225.0587,-1,-1,10,79.21869,1415909526,0.9918671,0.0327301,0.004989624,43.0438,2.756432,15.13733,272.9889,276.0713,25,-0.07879681,-0.08216438,-0.05108875,-1.978145,1.590656,-0.02498302,-0.02127196,-0.02146387,0.01572818,-0.01059921,0.0131513,-0.008575752,172.17.160.76,10.175.81.193,4,unknown,0,2014-11-13 14:12:28.447,15,2014-11-13 13:57:29.604,0
2014-11-13 14:12:33.466,61798,2059.933,40.11403,-88.22443,225.0587,-1,-1,10,79.21869,1415909526,1.021744,0.01455688,0.001831055,43.14592,2.410965,14.94916,273.0167,276.0991,15,-0.06290573,-0.06169532,-0.01282712,-1.977011,1.588727,-0.02681715,-0.04137293,-0.02078723,-0.03620991,0.002687007,-0.002170995,-0.01204911,172.17.160.76,10.175.81.193,4,unknown,0,2014-11-13 14:12:28.447,15,2014-11-13 13:57:29.604,0
2014-11-13 14:12:33.499,61799,2059.967,40.11403,-88.22443,225.0587,-1,-1,10,79.21869,1415909526,1.007904,0.02079773,0.0006408691,43.14592,2.135368,14.68063,272.6667,275.7491,15,-0.03960174,-0.05175214,0.0391506,-1.97671,1.58772,-0.0260708,0.009615761,0.01369796,0.03171901,0.02459187,-0.01050389,-0.01487268,172.17.160.76,10.175.81.193,4,unknown,0,2014-11-13 14:12:28.447,15,2014-11-13 13:57:29.604,0
2014-11-13 14:12:33.532,61800,2060,40.11403,-88.22443,225.0587,-1,-1,10,79.21869,1415909526,0.9747009,0.04124451,-0.006149292,42.97378,1.894211,14.91556,272.4254,275.5078,15,-0.006596916,-0.05804839,0.05173164,-1.977937,1.58683,-0.02302437,0.04464807,0.03212955,0.08369727,-0.01056226,0.0146974,-0.01953853,172.17.160.76,10.175.81.193,4,unknown,0,2014-11-13 14:12:28.447,15,2014-11-13 13:57:29.604,0
2014-11-13 14:12:33.566,61801,2060.033,40.11403,-88.22443,225.0587,-1,-1,10,79.21869,1415909526,0.9682007,0.0337677,0.02107239,43.00821,2.204269,15.08337,272.241,275.3233,15,-0.03840305,-0.1393813,-0.02712722,-1.97943,1.585346,-0.02305988,0.03839199,-0.05126538,0.01533858,-0.04018617,0.02277957,-0.009205038,172.17.160.76,10.175.81.193,4,unknown,0,2014-11-13 14:12:28.447,15,2014-11-13 13:57:29.604,0
