time,timestamp,recordtime,lat,long,alt,speed,course,verticalAccuracy,horizontalAccuracy,locTimeStamp,accelerationX,accelerationY,accelerationZ,HeadingX,HeadingY,HeadingZ,TrueHeading,MagneticHeading,HeadingAccuracy,RotationX,RotationY,RotationZ,motionYaw,motionRoll,motionPitch,motionRotationRateX,motionRotationRateY,motionRotationRateZ,motionUserAccelerationX,motionUserAccelerationY,motionUserAccelerationZ,en0,pdp_ip0,DeviceOrientation,Activity,Activity Confidence,Activity Start,Steps,Last Step Date,State
2014-11-13 21:51:49.852,3971,132.3667,0,0,0,0,0,0,0,-1,0.8693085,-0.4675293,0.1592102,35.56651,-5.914505,6.837769,319.9341,323.0173,10,-0.05443075,-0.03920919,0.01061216,-0.1461446,1.75286,0.4853268,0.01250743,0.03984517,0.02333608,0.006439446,0.004247684,0.001805799,172.17.160.76,0.0.0.0,4,running,0,2014-11-13 21:51:49.232,0,2014-11-13 21:44:53.658,0
2014-11-13 21:51:49.885,3972,132.4,0,0,0,0,0,0,0,-1,0.8610687,-0.4640198,0.164444,35.42868,-5.707771,6.435516,320.0031,323.0862,10,-0.04795208,-0.03196592,-0.01484952,-0.1466712,1.753917,0.4863769,0.003959136,0.01860463,0.02431745,-0.003345573,0.001392081,-0.0005353105,172.17.160.76,0.0.0.0,4,running,0,2014-11-13 21:51:49.232,0,2014-11-13 21:44:53.658,0
2014-11-13 21:51:49.919,3973,132.4333,0,0,0,0,0,0,0,-1,0.8677521,-0.4645996,0.161972,35.42868,-5.914513,6.368469,320.0397,323.1229,10,-0.05005305,-0.03736575,-0.02654639,-0.1474369,1.755725,0.486451,0.01473447,0.03108722,-0.01068524,-0.007428926,-0.001731518,-0.0015353,172.17.160.76,0.0.0.0,4,running,0,2014-11-13 21:51:49.232,0,2014-11-13 21:44:53.658,0
2014-11-13 21:51:49.952,3974,132.4667,0,0,0,0,0,0,0,-1,0.8662872,-0.4709625,0.1585388,35.42869,-5.845596,6.971802,320.0634,323.1465,10,-0.05536259,-0.03102743,-0.03180054,-0.1475806,1.756081,0.4862972,0.01568277,0.02893572,-0.01073254,-0.00231457,0.002618641,-0.0009582376,172.17.160.76,0.0.0.0,4,running,0,2014-11-13 21:51:49.232,0,2014-11-13 21:44:53.658,0
2014-11-13 21:51:49.986,3975,132.5,0,0,0,0,0,0,0,-1,0.8655548,-0.4598541,0.1639862,35.32532,-5.811142,7.407532,320.049,323.1322,10,-0.05745477,-0.02899703,-0.0445198,-0.1476529,1.757313,0.4854661,0.006117018,0.03099154,-0.02023906,-0.003654448,0.006522408,-0.003488396,172.17.160.76,0.0.0.0,4,running,0,2014-11-13 21:51:49.232,0,2014-11-13 21:44:53.658,0
2014-11-13 21:51:50.019,3976,132.5333,0,0,0,0,0,0,0,-1,0.8682861,-0.4615936,0.1596222,35.08413,-5.77668,7.575104,320.0064,323.0896,10,-0.0553586,-0.0384896,-0.0350243,-0.1477587,1.758573,0.4842049,0.01036465,0.02676976,-0.01603236,-0.002636029,0.003041389,-0.005166221,172.17.160.76,0.0.0.0,4,running,0,2014-11-13 21:51:49.232,0,2014-11-13 21:44:53.658,0
2014-11-13 21:51:50.052,3977,132.5667,0,0,0,0,0,0,0,-1,0.8678284,-0.4573364,0.1591187,34.77404,-6.155701,7.407532,319.9851,323.0683,10,-0.06173341,-0.04812172,-0.04460449,-0.1477849,1.758952,0.4836874,0.006125476,0.02244864,-0.02559305,-0.00177214,0.003636187,-0.00529735,172.17.160.76,0.0.0.0,4,running,0,2014-11-13 21:51:49.232,0,2014-11-13 21:44:53.658,0
2014-11-13 21:51:50.086,3978,132.6,0,0,0,0,0,0,0,-1,0.8529053,-0.4599609,0.1604309,34.80849,-6.46579,7.374054,319.9714,323.0546,10,-0.05852403,-0.06731406,-0.05320943,-0.1476671,1.759316,0.4821864,0.0125536,0.01916776,-0.03731202,-0.002091389,0.008379915,-0.002249708,172.17.160.76,0.0.0.0,4,running,0,2014-11-13 21:51:49.232,0,2014-11-13 21:44:53.658,0
2014-11-13 21:51:50.119,3979,132.6333,0,0,0,0,0,0,0,-1,0.8596649,-0.45047,0.161911,34.60176,-6.603607,7.23996,319.9487,323.0319,10,-0.0595877,-0.05986733,-0.05210475,-0.1474557,1.759039,0.4809481,-0.001420564,-0.01165233,-0.0352928,-0.01809688,0.004627369,-0.004832153,172.17.160.76,0.0.0.0,4,running,0,2014-11-13 21:51:49.232,0,2014-11-13 21:44:53.658,0
2014-11-13 21:51:50.152,3980,132.6667,0,0,0,0,0,0,0,-1,0.8642883,-0.4547882,0.1522369,34.77403,-6.431335,6.871246,319.9656,323.0488,10,-0.05850406,-0.05778261,-0.05740524,-0.1473661,1.759053,0.4797841,0.01141085,0.01911606,-0.04048664,-0.01175647,0.01111769,-0.00410584,172.17.160.76,0.0.0.0,4,running,0,2014-11-13 21:51:49.232,0,2014-11-13 21:44:53.658,0
2014-11-13 21:51:50.186,3981,132.7,0,0,0,0,0,0,0,-1,0.8620148,-0.4627075,0.1492615,34.80849,-6.121239,6.904755,319.9821,323.0653,10,-0.06065616,-0.06731299,-0.05320144,-0.1473601,1.759215,0.4792716,0.01035259,0.02122542,-0.04259495,-0.008330194,0.009304952,-0.005390176,172.17.160.76,0.0.0.0,4,running,0,2014-11-13 21:51:49.232,0,2014-11-13 21:44:53.658,0
2014-11-13 21:51:50.219,3982,132.7333,0,0,0,0,0,0,0,-1,0.8520813,-0.4527283,0.153244,35.1875,-6.017868,7.139435,320.007,323.0901,10,-0.08414391,-0.08744276,-0.0468506,-0.1461101,1.756814,0.4778279,-0.0227768,-0.02647763,-0.02892149,-0.01560575,0.00739785,-0.004731582,172.17.160.76,0.0.0.0,4,running,0,2014-11-13 21:51:49.232,0,2014-11-13 21:44:53.658,0
2014-11-13 21:51:50.252,3983,132.7667,0,0,0,0,0,0,0,-1,0.8671112,-0.4617767,0.1452179,35.46314,-6.086777,7.541656,319.9961,323.0793,10,-0.08309782,-0.08419956,-0.03940706,-0.1451831,1.755679,0.4771992,-0.0143099,-0.007396569,-0.03096943,-0.01343578,-0.0001338359,-0.01294976,172.17.160.76,0.0.0.0,4,running,0,2014-11-13 21:51:49.232,0,2014-11-13 21:44:53.658,0
2014-11-13 21:51:50.285,3984,132.8,0,0,0,0,0,0,0,-1,0.8650665,-0.4629211,0.1576691,35.46314,-6.293503,7.273499,319.9975,323.0807,10,-0.1098077,-0.1191722,-0.02887639,-0.1436746,1.753393,0.4770477,-0.03466516,-0.04760134,-0.008811804,-0.004720015,-0.006738137,-0.00583856,172.17.160.76,0.0.0.0,4,running,0,2014-11-13 21:51:49.232,0,2014-11-13 21:44:53.658,0
2014-11-13 21:51:50.318,3985,132.8333,0,0,0,0,0,0,0,-1,0.8660736,-0.4627533,0.1544189,35.35978,-5.77668,7.038879,320.0059,323.0891,10,-0.114044,-0.0990126,-0.03300029,-0.1426111,1.751847,0.4771697,-0.04849337,-0.04873734,-0.01937965,-0.008712571,-0.003654299,-0.002281087,172.17.160.76,0.0.0.0,4,running,0,2014-11-13 21:51:49.232,0,2014-11-13 21:44:53.658,0
2014-11-13 21:51:50.352,3986,132.8667,0,0,0,0,0,0,0,-1,0.8683472,-0.4633484,0.1555786,35.01522,-5.569946,6.837769,320.0256,323.1088,10,-0.1065512,-0.07992946,-0.03823527,-0.1414716,1.750734,0.4772028,-0.04741013,-0.01684413,-0.01709187,-0.006448956,-0.002510941,-0.00244994,172.17.160.76,0.0.0.0,4,running,0,2014-11-13 21:51:49.232,0,2014-11-13 21:44:53.658,0
2014-11-13 21:51:50.386,3987,132.9,0,0,0,0,0,0,0,-1,0.8635712,-0.4663544,0.1695557,34.91186,-5.466583,7.206451,320.0182,323.1014,10,-0.1161681,-0.1054191,-0.03727201,-0.1383871,1.748003,0.4769976,-0.04847893,-0.0402612,-0.02251533,-0.007735517,-0.007576045,0.00492546,172.17.160.76,0.0.0.0,4,running,0,2014-11-13 21:51:49.232,0,2014-11-13 21:44:53.658,0
2014-11-13 21:51:50.419,3988,132.9333,0,0,0,0,0,0,0,-1,0.8640594,-0.4610138,0.1734009,34.67067,-5.569954,7.374054,319.9872,323.0704,10,-0.1107771,-0.0800232,-0.05095772,-0.1373832,1.7472,0.4771018,-0.04952063,-0.029673,-0.02776103,-0.01097252,-0.007147798,0.01366253,172.17.160.76,0.0.0.0,4,running,0,2014-11-13 21:51:49.232,0,2014-11-13 21:44:53.658,0
2014-11-13 21:51:50.452,3989,132.9667,0,0,0,0,0,0,0,-1,0.8690186,-0.4678955,0.1695709,35.15305,-5.294312,7.307007,319.9594,323.0425,10,-0.09588578,-0.0522672,-0.03282213,-0.1362812,1.747226,0.4766944,-0.03571996,-0.0009880153,-0.02448672,-0.01482996,-0.002214938,0.01627742,172.17.160.76,0.0.0.0,4,running,0,2014-11-13 21:51:49.232,0,2014-11-13 21:44:53.658,0
2014-11-13 21:51:50.486,3990,133,0,0,0,0,0,0,0,-1,0.872345,-0.4662018,0.1672211,35.1875,-5.053131,7.005341,319.9622,323.0454,10,-0.09910554,-0.05114707,-0.0253738,-0.135334,1.748116,0.477065,-0.03577048,0.002339979,-0.006419997,-0.006436296,-0.007317867,0.01208075,172.17.160.76,0.0.0.0,4,running,0,2014-11-13 21:51:49.232,0,2014-11-13 21:44:53.658,0
2014-11-13 21:51:50.519,3991,133.0333,0,0,0,0,0,0,0,-1,0.867981,-0.4611053,0.166748,35.35978,-4.949768,6.904816,319.9847,323.0679,10,-0.09481652,-0.02246696,-0.02630031,-0.1337483,1.748835,0.477535,-0.03254507,0.02889046,-0.008412519,-0.008933676,-0.001376672,0.008331279,172.17.160.76,0.0.0.0,4,running,0,2014-11-13 21:51:49.232,0,2014-11-13 21:44:53.658,0
2014-11-13 21:51:50.552,3992,133.0667,0,0,0,0,0,0,0,-1,0.8715668,-0.4563904,0.1615143,34.98077,-5.397675,7.206451,319.9767,323.0598,10,-0.08521397,-0.02036253,-0.02844815,-0.1329604,1.750143,0.4776307,-0.02400514,0.04802214,-0.007281286,-0.005220181,-2.522438e-05,0.002114764,172.17.160.76,0.0.0.0,4,running,0,2014-11-13 21:51:49.232,0,2014-11-13 21:44:53.658,0
2014-11-13 21:51:50.586,3993,133.1,0,0,0,0,0,0,0,-1,0.8696442,-0.4631195,0.1615448,35.04968,-6.017876,7.139435,319.9694,323.0526,10,-0.08416388,-0.04161509,-0.028564,-0.1327353,1.750546,0.4775247,-0.0197869,0.04581673,-0.01264434,-0.002259266,0.003191828,0.002730634,172.17.160.76,0.0.0.0,4,running,0,2014-11-13 21:51:49.232,0,2014-11-13 21:44:53.658,0
2014-11-13 21:51:50.619,3994,133.1333,0,0,0,0,0,0,0,-1,0.8436432,-0.4546051,0.1512299,34.80849,-6.121239,7.508179,319.9269,323.0101,10,-0.09279226,-0.06371773,-0.001049552,-0.1315171,1.750927,0.4778538,-0.02949243,-0.002874477,0.01155137,-0.01691184,0.003926591,-0.004167405,172.17.160.76,0.0.0.0,4,running,0,2014-11-13 21:51:49.232,0,2014-11-13 21:44:53.658,0
2014-11-13 21:51:50.652,3995,133.1667,0,0,0,0,0,0,0,-1,0.8293457,-0.4562836,0.1352386,34.91186,-6.017868,7.675751,319.8661,322.9493,10,-0.08426534,-0.04029682,0.005410744,-0.1307237,1.750838,0.4788465,-0.02095143,0.02795981,0.01486811,-0.02802739,0.005601274,-0.01027898,172.17.160.76,0.0.0.0,4,running,0,2014-11-13 21:51:49.232,0,2014-11-13 21:44:53.658,0
2014-11-13 21:51:50.685,3996,133.2,0,0,0,0,0,0,0,-1,0.8013306,-0.4444733,0.1054077,35.32532,-6.086777,7.742798,319.7854,322.8686,10,-0.03694204,-0.1845469,0.1838644,-0.1297383,1.749211,0.4824153,-0.006363721,-0.04787339,0.1057079,-0.06000148,0.004050813,-0.03650395,172.17.160.76,0.0.0.0,4,running,0,2014-11-13 21:51:49.232,0,2014-11-13 21:44:53.658,0
2014-11-13 21:51:50.719,3997,133.2333,0,0,0,0,0,0,0,-1,0.7515869,-0.418457,0.08187866,35.2564,-6.293503,7.47464,319.7623,322.8455,10,0.002249839,-0.264845,0.2469837,-0.1307591,1.747877,0.4856566,0.02847815,-0.1183745,0.199678,-0.06920842,0.0223159,-0.05037978,172.17.160.76,0.0.0.0,4,running,0,2014-11-13 21:51:49.232,0,2014-11-13 21:44:53.658,0
2014-11-13 21:51:50.752,3998,133.2667,0,0,0,0,0,0,0,-1,0.7091217,-0.4165649,0.08122253,35.01522,-6.741417,7.03894,318.6281,321.7113,10,0.0404156,-0.3005292,0.3082188,-0.1328248,1.745479,0.4901577,0.06761101,-0.198728,0.2627667,-0.09765296,0.04419031,-0.0602543,172.17.160.76,0.0.0.0,4,running,0,2014-11-13 21:51:49.232,0,2014-11-13 21:44:53.658,0
2014-11-13 21:51:50.786,3999,133.3,0,0,0,0,0,0,0,-1,0.5483856,-0.5152435,0.1401367,34.8774,-6.948151,6.904846,318.449,321.5322,10,0.3376103,-0.5901853,0.665423,-0.1491289,1.738803,0.5115042,0.3254653,-0.4087819,0.6056765,-0.2258354,-0.03138454,-0.0184197,172.17.160.76,0.0.0.0,4,running,0,2014-11-13 21:51:49.232,0,2014-11-13 21:44:53.658,0
2014-11-13 21:51:50.819,4000,133.3333,0,0,0,0,0,0,0,-1,0.4398804,-0.5762024,0.1472321,34.91186,-7.120438,6.737274,316.5905,319.6736,10,0.6394718,-0.6892223,0.9376335,-0.1667036,1.732353,0.5296668,0.5166827,-0.5509152,0.7920942,-0.3281631,-0.002658261,0.005122384,172.17.160.76,0.0.0.0,4,running,0,2014-11-13 21:51:49.232,0,2014-11-13 21:44:53.658,0
2014-11-13 21:51:50.853,4001,133.3667,0,0,0,0,0,0,0,-1,0.4410858,-0.780014,0.1048889,34.84295,-7.671722,5.999878,318.0658,321.149,10,1.107535,-0.7263362,1.259437,-0.2215194,1.729141,0.5726535,1.043158,-0.6652214,1.167408,-0.4449417,-0.1277525,0.001016657,172.17.160.76,0.0.0.0,4,running,0,2014-11-13 21:51:49.232,0,2014-11-13 21:44:53.658,0
2014-11-13 21:51:50.886,4002,133.4,0,0,0,0,0,0,0,-1,0.478775,-0.897583,0.03463745,34.67067,-8.32637,5.631165,318.3386,321.4218,10,1.336089,-0.9058066,1.428535,-0.2549414,1.733981,0.5943928,1.293047,-0.719116,1.363624,-0.3763964,-0.2200083,-0.02970834,172.17.160.76,0.0.0.0,4,running,0,2014-11-13 21:51:49.232,0,2014-11-13 21:44:53.658,0
2014-11-13 21:51:50.919,4003,133.4333,0,0,0,0,0,0,0,-1,0.4984131,-1.034424,-0.008071899,33.67147,-9.118843,4.793243,319.4527,322.5359,10,1.573391,-1.630372,1.739091,-0.3172357,1.739977,0.632079,1.571003,-1.276049,1.65154,-0.3165072,-0.3067596,-0.1012079,172.17.160.76,0.0.0.0,4,running,0,2014-11-13 21:51:49.232,0,2014-11-13 21:44:53.658,0
2014-11-13 21:51:50.952,4004,133.4667,0,0,0,0,0,0,0,-1,0.4568939,-1.065674,-0.01176453,33.05127,-10.70378,3.921753,319.9052,322.9884,10,1.922576,-2.899933,1.928534,-0.4195948,1.724093,0.6929731,1.889038,-2.540753,1.919675,-0.262861,-0.4326143,-0.1345215,172.17.160.76,0.0.0.0,4,running,0,2014-11-13 21:51:49.232,0,2014-11-13 21:44:53.658,0
2014-11-13 21:51:50.986,4005,133.5,0,0,0,0,0,0,0,-1,0.4418488,-1.104858,0.02284241,32.84454,-11.66853,3.11731,320.6246,323.7078,10,2.206948,-3.335893,1.905005,-0.4796894,1.705418,0.7256843,2.11346,-3.079324,1.95315,-0.2741294,-0.4053832,-0.1352048,172.17.160.76,0.0.0.0,4,running,0,2014-11-13 21:51:49.232,0,2014-11-13 21:44:53.658,0
2014-11-13 21:51:51.019,4006,133.5333,0,0,0,0,0,0,0,-1,0.4018402,-1.141052,-0.009872437,31.77643,-13.97703,1.072723,322.1316,325.2148,10,3.418408,-4.36433,1.855778,-0.674545,1.664078,0.8044857,3.03304,-3.880347,1.88923,-0.2901831,-0.4520723,-0.03644254,172.17.160.76,0.0.0.0,4,running,0,2014-11-13 21:51:49.232,0,2014-11-13 21:44:53.658,0
2014-11-13 21:51:51.052,4007,133.5667,0,0,0,0,0,0,0,-1,0.659668,-1.338181,0.02246094,30.46714,-15.90652,-1.742767,328.0554,331.1385,10,4.115473,-4.866817,1.771972,-0.8340838,1.654316,0.8515075,3.812004,-4.530385,1.829816,-0.1808605,-0.4306326,-0.07991098,172.17.160.76,0.0.0.0,4,running,0,2014-11-13 21:51:49.232,0,2014-11-13 21:44:53.658,0
2014-11-13 21:51:51.086,4008,133.6,0,0,0,0,0,0,0,-1,0.8440247,-1.399399,0.322113,29.5713,-16.59563,-2.547211,330.0281,333.1113,10,5.030222,-6.698552,1.280172,-1.046415,1.66471,0.8925579,4.758268,-5.563588,1.695576,0.1276314,-0.5883405,0.07257196,172.17.160.76,0.0.0.0,4,running,0,2014-11-13 21:51:49.232,0,2014-11-13 21:44:53.658,0
2014-11-13 21:51:51.119,4009,133.6333,0,0,0,0,0,0,0,-1,0.8009033,-1.576813,0.668457,27.84854,-19.0764,-4.424194,340.264,343.3472,10,5.902584,-7.550416,-0.4599186,-1.490026,1.669168,0.9147788,5.929969,-7.63241,0.07214911,0.2870261,-0.6794961,0.5440512,172.17.160.76,0.0.0.0,4,running,0,2014-11-13 21:51:49.232,0,2014-11-13 21:44:53.658,0
2014-11-13 21:51:51.152,4010,133.6667,0,0,0,0,0,0,0,-1,0.6998596,-1.65036,0.6938782,26.05686,-21.0748,-5.63089,352.6074,355.6906,10,5.844933,-7.200998,-1.05017,-1.490026,1.669168,0.9147788,5.929969,-7.63241,0.07214911,0.2870261,-0.6794961,0.5440512,172.17.160.76,0.0.0.0,4,running,0,2014-11-13 21:51:49.232,0,2014-11-13 21:44:53.658,0
2014-11-13 21:51:51.186,4011,133.7,0,0,0,0,0,0,0,-1,0.9770203,-2.052719,0.1979218,26.71151,-21.31598,-6.200714,13.12765,16.21084,10,6.228218,-3.849691,-4.274662,-2.022888,1.702124,0.7619789,6.302321,-4.290005,-3.771193,-0.01194971,-1.307067,0.3588747,172.17.160.76,0.0.0.0,4,running,0,2014-11-13 21:51:49.232,0,2014-11-13 21:44:53.658,0
2014-11-13 21:51:51.219,4012,133.7333,0,0,0,0,0,0,0,-1,1.257614,-1.806778,0.05699158,27.53844,-20.48906,-6.06662,24.65623,27.73943,10,6.17833,-3.466961,-4.956053,-2.170738,1.724041,0.6580243,6.242612,-3.527178,-4.634183,0.1950903,-1.441164,0.07714839,172.17.160.76,0.0.0.0,4,running,0,2014-11-13 21:51:49.232,0,2014-11-13 21:44:53.658,0
2014-11-13 21:51:51.252,4013,133.7667,0,0,0,0,0,0,0,-1,1.080917,-1.321609,-0.2785645,30.8806,-17.28473,-4.893494,56.6216,59.7048,10,5.742851,-2.820824,-5.676012,-2.416746,1.720957,0.4131109,5.952579,-3.020667,-5.543304,0.2535333,-1.330168,-0.2171668,172.17.160.76,0.0.0.0,4,running,0,2014-11-13 21:51:49.232,0,2014-11-13 21:44:53.658,0
2014-11-13 21:51:51.286,4014,133.8,0,0,0,0,0,0,0,-1,1.132385,-1.068771,-0.5670013,32.81009,-15.01068,-4.290161,69.95788,73.04107,10,5.244368,-1.766115,-5.903179,-2.570799,1.696406,0.2197748,5.525676,-1.925926,-5.811926,0.1126599,-1.1036,-0.4008311,172.17.160.76,0.0.0.0,4,running,0,2014-11-13 21:51:49.232,0,2014-11-13 21:44:53.658,0
2014-11-13 21:51:51.319,4015,133.8333,0,0,0,0,0,0,0,-1,0.9813843,-0.5679626,-0.6918793,36.04888,-9.15329,-3.753876,100.6795,103.7627,10,3.540809,-1.112691,-5.734138,-2.743079,1.651845,-0.03778039,4.356185,-1.298782,-5.995311,0.1271171,-1.028601,-0.7452392,172.17.160.76,0.0.0.0,4,running,0,2014-11-13 21:51:49.232,0,2014-11-13 21:44:53.658,0
2014-11-13 21:51:51.352,4016,133.8667,0,0,0,0,0,0,0,-1,0.720108,-0.2433472,-0.6809387,37.70273,-5.845589,-3.955017,130.9644,134.0476,10,2.553211,-0.9083302,-5.184823,-2.844693,1.606455,-0.2167085,3.263381,-0.9472273,-5.519132,-0.09142238,-0.6681718,-0.7190822,172.17.160.76,0.0.0.0,4,running,0,2014-11-13 21:51:49.232,0,2014-11-13 21:44:53.658,0
2014-11-13 21:51:51.386,4017,133.9,0,0,0,0,0,0,0,-1,0.641861,-0.006011963,-0.6098328,38.42629,-2.57235,-3.921509,130.9644,134.0476,10,2.553211,-0.9083302,-5.184823,-2.874167,1.590377,-0.2712168,2.92703,-0.8797003,-5.321143,-0.1712382,-0.6337334,-0.7024876,172.17.160.76,0.0.0.0,4,running,0,2014-11-13 21:51:49.232,0,2014-11-13 21:44:53.658,0
2014-11-13 21:51:51.419,4018,133.9333,0,0,0,0,0,0,0,-1,0.6386566,0.4011536,-0.574585,37.56491,7.040649,-5.429871,167.2306,170.3138,10,1.277897,-0.2271895,-4.55337,-3.016731,1.500348,-0.5624274,1.455094,-0.1451326,-4.520959,-0.248177,-0.4007339,-0.5146105,172.17.160.76,0.0.0.0,4,running,0,2014-11-13 21:51:49.232,0,2014-11-13 21:44:53.658,0
2014-11-13 21:51:51.451,4019,133.9667,0,0,0,0,0,0,0,-1,0.5718994,0.3710632,-0.5832062,36.1867,9.865967,-5.765045,174.4868,177.57,10,0.85028,-0.9990242,-4.35309,-3.102457,1.433683,-0.7386947,1.087789,-0.697095,-4.468354,-0.1576716,-0.268645,-0.4806995,172.17.160.76,0.0.0.0,4,running,0,2014-11-13 21:51:49.232,0,2014-11-13 21:44:53.658,0
2014-11-13 21:51:51.485,4020,134,0,0,0,0,0,0,0,-1,0.482666,0.6912537,-0.6224518,33.53365,15.27544,-6.871185,188.6242,191.7074,10,0.5705559,-1.483303,-4.337609,3.13693,1.382837,-0.8213218,0.7435603,-1.202346,-4.278659,-0.08551536,-0.3241032,-0.4854668,172.17.160.76,0.0.0.0,4,running,0,2014-11-13 21:51:49.232,0,2014-11-13 21:44:53.658,0
2014-11-13 21:51:51.519,4021,134.0333,0,0,0,0,0,0,0,-1,0.4153137,0.6665344,-0.596756,30.08813,19.82354,-7.742584,206.603,209.6862,10,0.5009065,-1.002252,-4.80399,3.026264,1.241,-0.9889333,0.5252602,-1.1427,-4.696813,-0.09789001,-0.1388155,-0.4559898,172.17.160.76,0.0.0.0,4,running,0,2014-11-13 21:51:49.232,0,2014-11-13 21:44:53.658,0
2014-11-13 21:51:51.552,4022,134.0667,0,0,0,0,0,0,0,-1,0.1903839,0.826828,-0.5249023,25.60894,23.88925,-9.418488,210.0671,213.1503,10,0.8896412,-1.114354,-5.415327,2.800515,1.005597,-1.155913,0.7558702,-0.902539,-5.10296,0.06953109,-0.1769127,-0.2910272,172.17.160.76,0.0.0.0,4,running,0,2014-11-13 21:51:49.232,0,2014-11-13 21:44:53.658,0
2014-11-13 21:51:51.586,4023,134.1,0,0,0,0,0,0,0,-1,0.1068573,0.7108917,-0.4792175,22.99035,25.61201,-10.15591,221.7163,224.7995,10,1.032766,-1.233805,-5.182966,2.582835,0.7834505,-1.228197,0.9549383,-1.048311,-5.399565,0.05866577,-0.06413795,-0.3013623,172.17.160.76,0.0.0.0,4,running,0,2014-11-13 21:51:49.232,0,2014-11-13 21:44:53.658,0
2014-11-13 21:51:51.619,4024,134.1333,0,0,0,0,0,0,0,-1,0.00932312,0.8249207,-0.5914459,19.82047,27.05914,-11.02731,220.6989,223.7821,10,1.307934,-1.33326,-5.250332,2.271147,0.464559,-1.273421,1.097987,-1.167845,-5.167226,-0.01582955,-0.2119073,-0.2362415,172.17.160.76,0.0.0.0,4,running,0,2014-11-13 21:51:49.232,0,2014-11-13 21:44:53.658,0
2014-11-13 21:51:51.652,4025,134.1667,0,0,0,0,0,0,0,-1,-0.1475525,0.6677246,-0.6577301,8.277966,29.29874,-14.21158,241.0974,244.1806,10,2.070962,-1.232358,-5.49043,1.429219,-0.4050221,-1.202043,1.771422,-1.42343,-5.48317,0.1091955,-0.1183855,-0.2415253,172.17.160.76,0.0.0.0,4,running,0,2014-11-13 21:51:49.232,0,2014-11-13 21:44:53.658,0
2014-11-13 21:51:51.686,4026,134.2,0,0,0,0,0,0,0,-1,-0.4527893,0.5267029,-0.7469788,4.21225,29.43655,-15.4852,238.0301,241.1133,10,2.438229,-1.368563,-5.352407,1.23826,-0.6052118,-1.113839,2.136183,-1.166399,-5.47469,0.1034736,-0.2296744,-0.2948789,172.17.160.76,0.0.0.0,4,running,0,2014-11-13 21:51:49.232,0,2014-11-13 21:44:53.658,0
2014-11-13 21:51:51.719,4027,134.2333,0,0,0,0,0,0,0,-1,-0.5451508,0.5486755,-0.8008118,-3.367901,26.95578,-18.09958,255.1262,258.2094,10,3.605774,-1.487288,-4.39464,1.034575,-0.8623363,-0.7877511,3.353997,-1.470802,-4.618929,0.002529766,-0.1076181,-0.2988219,172.17.160.76,0.0.0.0,4,running,0,2014-11-13 21:51:49.232,0,2014-11-13 21:44:53.658,0
2014-11-13 21:51:51.752,4028,134.2667,0,0,0,0,0,0,0,-1,-0.721817,0.3389282,-0.9947815,-10.01776,22.64888,-20.74747,250.7241,253.8073,10,4.037248,-1.926471,-3.707543,1.037528,-0.889791,-0.6740403,3.913032,-1.544514,-4.071564,0.01715402,-0.1633171,-0.3772502,172.17.160.76,0.0.0.0,4,running,0,2014-11-13 21:51:49.232,0,2014-11-13 21:44:53.658,0
2014-11-13 21:51:51.786,4029,134.3,0,0,0,0,0,0,0,-1,-0.6685028,0.2790375,-1.05011,-10.01776,22.64888,-20.74747,250.7241,253.8073,10,4.602748,-2.973394,-2.72375,1.062771,-0.9143684,-0.5662283,4.305655,-2.227357,-3.290072,-0.05327459,-0.1975246,-0.4797384,172.17.160.76,0.0.0.0,4,running,0,2014-11-13 21:51:49.232,0,2014-11-13 21:44:53.658,0
2014-11-13 21:51:51.819,4030,134.3333,0,0,0,0,0,0,0,-1,-0.8242188,0.0821228,-1.186325,-18.80383,13.44933,-23.12729,260.1395,263.2227,10,5.25563,-4.621234,-1.527967,1.198575,-1.020455,-0.3268214,5.134568,-4.173166,-1.860868,0.1551604,-0.213704,-0.6408284,172.17.160.76,0.0.0.0,4,walking,0,2014-11-13 21:51:51.705,0,2014-11-13 21:44:53.658,0
2014-11-13 21:51:51.852,4031,134.3667,0,0,0,0,0,0,0,-1,-0.8454742,0.08105469,-1.240051,-21.35352,10.76182,-22.45694,253.245,256.3282,10,5.726113,-5.170603,-1.078308,1.28093,-1.08987,-0.2485189,5.527707,-4.869008,-1.25353,0.05567944,-0.1785553,-0.7351592,172.17.160.76,0.0.0.0,4,walking,0,2014-11-13 21:51:51.705,0,2014-11-13 21:44:53.658,0
2014-11-13 21:51:51.885,4032,134.4,0,0,0,0,0,0,0,-1,-0.9196167,-0.05892944,-1.163727,-26.8319,4.663246,-18.87051,252.1869,255.2701,10,6.846949,-5.689554,0.0654091,1.497924,-1.264076,-0.1237977,6.598286,-5.611656,-0.469584,0.0819583,-0.05747215,-0.9702594,172.17.160.76,0.0.0.0,4,walking,0,2014-11-13 21:51:51.705,0,2014-11-13 21:44:53.658,0
2014-11-13 21:51:51.919,4033,134.4333,0,0,0,0,0,0,0,-1,-1.21701,-0.3616028,-1.276169,-30.65643,0.3563538,-12.33456,235.9586,239.0418,10,7.155951,-5.31883,0.9175128,1.699653,-1.412327,-0.07688112,7.092567,-5.399113,0.4128373,-0.049123,-0.1688464,-0.9387898,172.17.160.76,0.0.0.0,4,walking,0,2014-11-13 21:51:51.705,0,2014-11-13 21:44:53.658,0
2014-11-13 21:51:51.952,4034,134.4667,0,0,0,0,0,0,0,-1,-1.079575,-0.6521454,-1.455017,-32.7582,-0.5739441,-5.396423,223.0406,226.1238,10,6.881928,-3.847282,4.135148,1.918933,-1.544181,-0.1015616,7.170569,-4.478175,2.354599,-0.1317107,-0.5718918,-1.298751,172.17.160.76,0.0.0.0,4,walking,0,2014-11-13 21:51:51.705,0,2014-11-13 21:44:53.658,0
2014-11-13 21:51:51.986,4035,134.5,0,0,0,0,0,0,0,-1,-0.750412,-1.238922,-1.217743,-32.86157,1.734558,-2.346313,210.4131,213.4963,10,5.611937,-3.201231,7.587815,2.126771,-1.628354,-0.2233465,6.643464,-3.54679,5.223233,0.01923168,-1.199445,-1.485128,172.17.160.76,0.0.0.0,4,walking,0,2014-11-13 21:51:51.705,0,2014-11-13 21:44:53.658,0
2014-11-13 21:51:52.019,4036,134.5333,0,0,0,0,0,0,0,-1,-0.2649994,-1.318741,-0.8246307,-31.96574,5.111176,-0.06710815,216.2976,219.3808,10,2.615623,-0.9107276,11.58635,2.331008,-1.668708,-0.551449,4.308057,-1.628561,9.495438,0.3315581,-1.748531,-1.237256,172.17.160.76,0.0.0.0,4,walking,0,2014-11-13 21:51:51.705,0,2014-11-13 21:44:53.658,0
2014-11-13 21:51:52.053,4037,134.5667,0,0,0,0,0,0,0,-1,1.120102,-1.566879,0.2570038,-21.28461,21.0295,3.01651,212.2873,215.3705,10,0.1148342,-0.2392446,14.52894,2.406535,-1.652409,-1.033357,0.9914171,-0.3783375,13.75188,0.7281756,-2.167326,-0.4170242,172.17.160.76,0.0.0.0,4,walking,0,2014-11-13 21:51:51.705,0,2014-11-13 21:44:53.658,0
2014-11-13 21:51:52.086,4038,134.6,0,0,0,0,0,0,0,-1,2.398468,-2.051514,0.8134766,-14.39357,25.92213,3.284698,124.5132,127.5964,10,-2.076569,1.861768,13.87098,0.2081848,2.466134,-1.487919,-1.551167,1.513188,14.60356,1.436246,-2.691377,0.4800726,172.17.160.76,0.0.0.0,4,walking,0,2014-11-13 21:51:51.705,0,2014-11-13 21:44:53.658,0
2014-11-13 21:51:52.119,4039,134.6333,0,0,0,0,0,0,0,-1,3.330185,0.9058685,0.7916565,9.587273,31.22826,7.239807,69.48515,72.56834,10,-2.464856,-1.808236,5.949315,-0.4485701,1.864168,-0.9165892,-2.204563,-0.5856503,8.029688,2.992405,-1.458005,1.0873,172.17.160.76,0.0.0.0,4,walking,0,2014-11-13 21:51:51.705,0,2014-11-13 21:44:53.658,0
2014-11-13 21:51:52.158,4040,134.6667,0,0,0,0,0,0,0,-1,0.5592651,1.107971,-0.1351166,16.0304,30.09122,9.217346,54.83762,57.92081,10,-2.69015,-2.313437,7.706373,-0.4378171,1.846645,-0.779493,-2.399642,-1.742284,5.965053,2.645805,0.2029496,0.5979324,172.17.160.76,0.0.0.0,4,walking,0,2014-11-13 21:51:51.705,0,2014-11-13 21:44:53.658,0
2014-11-13 21:51:52.186,4041,134.7,0,0,0,0,0,0,0,-1,-1.094131,0.7715759,-0.3332214,16.0304,30.09122,9.217346,54.83762,57.92081,10,-2.205269,-1.96137,9.620263,-0.4271581,1.832886,-0.7128469,-2.57288,-2.169356,6.388045,1.870375,0.6045091,0.2884725,172.17.160.76,0.0.0.0,4,walking,0,2014-11-13 21:51:51.705,0,2014-11-13 21:44:53.658,0
2014-11-13 21:51:52.221,4042,134.7333,0,0,0,0,0,0,0,-1,1.407211,-2.882477,-0.3191376,28.02082,20.23703,16.99347,11.41755,14.50074,10,-5.468922,12.84927,1.882047,-0.4972759,2.219692,-0.1353588,-3.309754,14.84858,3.374524,-1.050435,-2.845334,-0.5568023,172.17.160.76,0.0.0.0,4,walking,0,2014-11-13 21:51:51.705,0,2014-11-13 21:44:53.658,0
2014-11-13 21:51:52.254,4043,134.7667,0,0,0,0,0,0,0,-1,1.110794,-2.968018,-0.1987457,28.74438,16.61923,21.0491,7.049427,10.13262,10,-9.363157,7.546089,0.5153134,-0.4754384,2.356889,-0.08614343,-5.403708,12.91522,1.897785,0.7032158,-2.968514,-1.024111,172.17.160.76,0.0.0.0,4,walking,0,2014-11-13 21:51:51.705,0,2014-11-13 21:44:53.658,0
2014-11-13 21:51:52.285,4044,134.8,0,0,0,0,0,0,0,-1,0.5161285,-2.703125,0.6086884,24.09292,7.144043,29.19388,6.129088,9.212279,10,-9.363157,7.546089,0.5153134,-0.4754384,2.356889,-0.08614343,-5.403708,12.91522,1.897785,0.7032158,-2.968514,-1.024111,172.17.160.76,0.0.0.0,4,walking,0,2014-11-13 21:51:51.705,0,2014-11-13 21:44:53.658,0
2014-11-13 21:51:52.319,4045,134.8333,0,0,0,0,0,0,0,-1,1.769623,-2.533035,1.427048,14.411,-3.295883,32.17691,355.4175,358.5007,10,-8.43549,4.74734,-4.505663,-0.04522347,2.931454,0.6094536,-8.964916,6.788923,-4.059071,1.559902,-1.54991,0.6586173,172.17.160.76,0.0.0.0,4,walking,0,2014-11-13 21:51:51.705,0,2014-11-13 21:44:53.658,0
2014-11-13 21:51:52.352,4046,134.8667,0,0,0,0,0,0,0,-1,1.398743,-2.807602,1.32518,10.68984,-8.808716,31.10437,355.3403,358.4235,10,-8.205377,2.516224,-4.315531,-0.04522347,2.931454,0.6094536,-8.964916,6.788923,-4.059071,1.559902,-1.54991,0.6586173,172.17.160.76,0.0.0.0,4,walking,0,2014-11-13 21:51:51.705,0,2014-11-13 21:44:53.658,0
2014-11-13 21:51:52.390,4047,134.9,0,0,0,0,0,0,0,-1,-0.0483551,-1.799957,1.68605,7.761147,-17.45699,26.11023,353.5241,356.6073,10,-7.237453,0.07478369,-3.506179,0.3789761,2.724106,0.9453414,-7.557648,-0.2654195,-3.407279,0.05478981,-1.516696,1.185217,172.17.160.76,0.0.0.0,4,walking,0,2014-11-13 21:51:51.705,0,2014-11-13 21:44:53.658,0
2014-11-13 21:51:52.419,4048,134.9333,0,0,0,0,0,0,0,-1,0.483078,-1.667313,1.070114,8.760349,-20.45459,22.79196,221.9254,225.0085,10,-4.325031,2.88455,-3.840901,0.8822865,2.348452,1.070907,-5.057059,2.967491,-3.876224,-0.1362739,-0.8102,1.07564,172.17.160.76,0.0.0.0,4,walking,0,2014-11-13 21:51:51.705,0,2014-11-13 21:44:53.658,0
2014-11-13 21:51:52.452,4049,134.9667,0,0,0,0,0,0,0,-1,0.7886047,-2.112442,0.5119934,11.7235,-25.00269,14.34549,187.2637,190.3469,10,-2.882797,-1.143681,-2.347472,1.28937,2.067252,1.052189,-3.109659,0.196657,-2.723047,0.5872092,-1.304723,0.3105062,172.17.160.76,0.0.0.0,4,walking,0,2014-11-13 21:51:51.705,0,2014-11-13 21:44:53.658,0
2014-11-13 21:51:52.485,4050,135,0,0,0,0,0,0,0,-1,0.5831757,-1.921371,0.4376984,12.89497,-25.48507,12.13333,185.8188,188.9019,10,-2.590698,-0.9458078,-2.297634,1.499278,1.8601,1.018598,-2.757047,-1.147464,-2.275008,0.2014479,-1.217855,0.3438815,172.17.160.76,0.0.0.0,4,walking,0,2014-11-13 21:51:51.705,0,2014-11-13 21:44:53.658,0
2014-11-13 21:51:52.519,4051,135.0333,0,0,0,0,0,0,0,-1,0.6822662,-1.609344,0.2077179,15.34129,-25.51953,8.882111,187.7449,190.8281,10,-1.900448,0.09801711,-2.202373,1.661826,1.697123,0.9673122,-2.335547,-0.5227051,-2.252067,0.01662804,-1.007585,0.3039714,172.17.160.76,0.0.0.0,4,walking,0,2014-11-13 21:51:51.705,0,2014-11-13 21:44:53.658,0
2014-11-13 21:51:52.552,4052,135.0667,0,0,0,0,0,0,0,-1,0.9535065,-1.554672,0.2188416,16.58168,-25.86408,7.340302,191.5738,194.657,10,-1.24377,0.6241794,-1.711656,1.766479,1.614195,0.9069098,-1.534783,0.3580066,-2.080591,0.1505415,-0.7454319,0.1446691,172.17.160.76,0.0.0.0,4,walking,0,2014-11-13 21:51:51.705,0,2014-11-13 21:44:53.658,0
2014-11-13 21:51:52.586,4053,135.1,0,0,0,0,0,0,0,-1,0.8374176,-1.524796,0.2612457,17.85653,-25.82962,6.100159,188.9053,191.9885,10,-1.218601,0.5602668,-1.590017,1.808756,1.593052,0.8710791,-1.178562,0.6901264,-1.695919,0.3096646,-0.7896479,0.2045102,172.17.160.76,0.0.0.0,4,walking,0,2014-11-13 21:51:51.705,0,2014-11-13 21:44:53.658,0
2014-11-13 21:51:52.619,4054,135.1333,0,0,0,0,0,0,0,-1,0.6365814,-1.00676,0.2829437,20.75076,-24.3825,4.625397,194.1614,197.2446,10,-0.7746949,0.212997,-1.113718,1.906105,1.540227,0.7892065,-0.8885375,0.2201096,-1.151775,-0.04726509,-0.3927751,0.308731,172.17.160.76,0.0.0.0,4,walking,0,2014-11-13 21:51:51.705,0,2014-11-13 21:44:53.658,0
2014-11-13 21:51:52.652,4055,135.1667,0,0,0,0,0,0,0,-1,0.5402832,-0.8255463,0.2131958,21.47433,-23.59003,4.457825,193.5998,196.683,10,-0.1929079,0.3251981,-0.9932352,1.927994,1.53416,0.7566288,-0.314231,0.364296,-1.017296,-0.1437502,-0.1885871,0.2729722,172.17.160.76,0.0.0.0,4,walking,0,2014-11-13 21:51:51.705,0,2014-11-13 21:44:53.658,0
2014-11-13 21:51:52.685,4056,135.2,0,0,0,0,0,0,0,-1,0.4091644,-0.7262268,0.09561157,22.68026,-22.86647,3.485809,194.2547,197.3379,10,0.1680873,0.2908864,-0.8705743,1.929353,1.541166,0.7373246,0.05437659,0.4105143,-0.9239613,-0.2348638,-0.1405412,0.2102248,172.17.160.76,0.0.0.0,4,walking,0,2014-11-13 21:51:51.705,0,2014-11-13 21:44:53.658,0
2014-11-13 21:51:52.719,4057,135.2333,0,0,0,0,0,0,0,-1,0.4033356,-0.5387573,0.05924988,23.88619,-22.21182,3.050079,196.1424,199.2256,10,0.6592647,-0.1680359,-0.5436478,1.907338,1.564331,0.7072516,0.6032736,0.02250934,-0.6297836,-0.3478879,-0.02514921,0.07289283,172.17.160.76,0.0.0.0,4,walking,0,2014-11-13 21:51:51.705,0,2014-11-13 21:44:53.658,0
2014-11-13 21:51:52.752,4058,135.2667,0,0,0,0,0,0,0,-1,0.4229584,-0.4738159,0.05107117,24.85094,-21.24707,3.988586,201.7522,204.8354,10,0.8070129,-0.2777416,-0.4280158,1.907338,1.564331,0.7072516,0.6032736,0.02250934,-0.6297836,-0.3478879,-0.02514921,0.0530459,172.17.160.76,0.0.0.0,4,walking,0,2014-11-13 21:51:51.705,0,2014-11-13 21:44:53.658,0
2014-11-13 21:51:52.786,4059,135.3,0,0,0,0,0,0,0,-1,0.4472809,-0.6894836,-0.09089661,24.5753,-21.04034,4.323761,201.7858,204.869,10,1.272833,-0.1059134,-0.01593875,1.826254,1.603213,0.6877312,1.354135,-0.16292,-0.0900932,-0.3357283,-0.03452578,0.01765051,172.17.160.76,0.0.0.0,4,walking,0,2014-11-13 21:51:51.705,0,2014-11-13 21:44:53.658,0
2014-11-13 21:51:52.819,4060,135.3333,0,0,0,0,0,0,0,-1,0.9781799,-0.08988953,-0.07279968,24.50638,-20.97144,4.860016,202.3542,205.4373,10,1.214459,0.08190072,-0.05400598,1.777268,1.635221,0.6869356,1.160924,0.1305738,0.06927505,-0.2360054,0.116257,-0.2122082,172.17.160.76,0.0.0.0,4,walking,0,2014-11-13 21:51:51.705,0,2014-11-13 21:44:53.658,0
2014-11-13 21:51:52.852,4061,135.3667,0,0,0,0,0,0,0,-1,0.712677,-0.8632507,-0.1313019,24.81648,-20.93698,6.569397,204.8546,207.9378,10,2.114718,0.4512119,0.2237375,1.691343,1.704556,0.6708249,2.276886,0.8565803,-0.3885795,0.3032318,0.1488693,-0.100297,172.17.160.76,0.0.0.0,4,walking,0,2014-11-13 21:51:51.705,0,2014-11-13 21:44:53.658,0
2014-11-13 21:51:52.886,4062,135.4,0,0,0,0,0,0,0,-1,0.7338409,-0.601059,-0.1173706,24.91984,-20.55798,8.278778,206.5227,209.6059,10,1.616073,-1.135467,0.4380375,1.607882,1.772246,0.6633082,1.954906,-0.09120502,0.4408984,-0.1147069,-0.1558185,-0.2965028,172.17.160.76,0.0.0.0,4,walking,0,2014-11-13 21:51:51.705,0,2014-11-13 21:44:53.658,0
