time,timestamp,recordtime,lat,long,alt,speed,course,verticalAccuracy,horizontalAccuracy,locTimeStamp,accelerationX,accelerationY,accelerationZ,HeadingX,HeadingY,HeadingZ,TrueHeading,MagneticHeading,HeadingAccuracy,RotationX,RotationY,RotationZ,motionYaw,motionRoll,motionPitch,motionRotationRateX,motionRotationRateY,motionRotationRateZ,motionUserAccelerationX,motionUserAccelerationY,motionUserAccelerationZ,en0,pdp_ip0,DeviceOrientation,Activity,Activity Confidence,Activity Start,Steps,Last Step Date,State
2014-11-13 21:51:33.919,3493,116.4333,0,0,0,0,0,0,0,-1,0.736557,-0.6585236,0.1362762,33.36136,-11.97865,6.10025,307.466,310.5492,10,-0.05129328,-0.04331738,0.02968546,-0.1723032,1.74489,0.7211969,0.01771581,0.01542213,0.06432743,-0.01001871,-0.005029637,0.01168153,172.17.160.76,0.0.0.0,4,unknown,2,2014-11-13 21:51:26.977,0,2014-11-13 21:44:53.658,0
2014-11-13 21:51:33.953,3494,116.4667,0,0,0,0,0,0,0,-1,0.7410278,-0.6585083,0.1335907,33.3269,-12.01311,6.200806,307.2349,310.3181,10,-0.03845338,-0.04024782,0.01479279,-0.173789,1.747128,0.7223424,0.02423513,0.03320239,0.03044665,-0.002068527,0.002620299,0.004666521,172.17.160.76,0.0.0.0,4,unknown,2,2014-11-13 21:51:26.977,0,2014-11-13 21:44:53.658,0
2014-11-13 21:51:33.986,3495,116.5,0,0,0,0,0,0,0,-1,0.7471008,-0.6503296,0.130188,33.80928,-11.94419,5.731506,307.3087,310.3919,10,-0.02462252,-0.09022097,0.0112934,-0.1757746,1.748835,0.7226667,0.03915192,-0.01149884,0.02166141,0.01231484,0.009791062,-0.002034269,172.17.160.76,0.0.0.0,4,unknown,2,2014-11-13 21:51:26.977,0,2014-11-13 21:44:53.658,0
2014-11-13 21:51:34.019,3496,116.5333,0,0,0,0,0,0,0,-1,0.7381897,-0.65271,0.1318512,33.637,-12.04755,5.698029,307.3523,310.4355,10,-0.006481069,-0.1126325,-0.0005688512,-0.176961,1.748954,0.7226269,0.0454922,-0.04330086,0.03208309,0.008215446,0.007960706,0.0001924052,172.17.160.76,0.0.0.0,4,unknown,2,2014-11-13 21:51:26.977,0,2014-11-13 21:44:53.658,0
2014-11-13 21:51:34.053,3497,116.5667,0,0,0,0,0,0,0,-1,0.740799,-0.6488953,0.1290588,33.74037,-12.01309,5.731506,307.4536,310.5367,10,-0.0118018,-0.1041371,-0.001565672,-0.1806816,1.748629,0.7223773,0.05080672,-0.05923625,0.03303663,-0.01127729,0.006171285,-0.002404444,172.17.160.76,0.0.0.0,4,unknown,2,2014-11-13 21:51:26.977,0,2014-11-13 21:44:53.658,0
2014-11-13 21:51:34.085,3498,116.6,0,0,0,0,0,0,0,-1,0.7277832,-0.6552887,0.1251678,33.46473,-12.01309,6.066681,307.4855,310.5687,10,-0.01185293,-0.09975083,0.01650281,-0.1820363,1.748473,0.7223165,0.05513779,-0.03811485,0.01614652,0.001769767,0.01566243,-0.003074552,172.17.160.76,0.0.0.0,4,unknown,2,2014-11-13 21:51:26.977,0,2014-11-13 21:44:53.658,0
2014-11-13 21:51:34.119,3499,116.6333,0,0,0,0,0,0,0,-1,0.730545,-0.6586304,0.1207123,33.56809,-12.11646,6.636505,307.4589,310.5421,10,-0.02038144,-0.1082634,0.01436696,-0.1858586,1.748237,0.723243,0.04874657,-0.0316844,0.02682274,-0.001259297,0.004546987,-0.009796121,172.17.160.76,0.0.0.0,4,unknown,2,2014-11-13 21:51:26.977,0,2014-11-13 21:44:53.658,0
2014-11-13 21:51:34.152,3500,116.6667,0,0,0,0,0,0,0,-1,0.7434387,-0.6607819,0.1186829,33.60255,-12.21983,6.602997,307.4329,310.5161,10,-0.02785587,-0.1241986,0.01431103,-0.1863974,1.748074,0.7235217,0.04658986,-0.04227008,0.03208265,-0.007187586,0.003397844,-0.01145885,172.17.160.76,0.0.0.0,4,unknown,2,2014-11-13 21:51:26.977,0,2014-11-13 21:44:53.658,0
2014-11-13 21:51:34.186,3501,116.7,0,0,0,0,0,0,0,-1,0.7316895,-0.6644135,0.1194611,33.70591,-12.25429,6.770569,307.398,310.4812,10,-0.02784069,-0.133818,0.006829943,-0.1872452,1.747254,0.7240106,0.03911407,-0.05820703,0.03202626,0.0006371457,0.007182155,-0.01238395,172.17.160.76,0.0.0.0,4,unknown,2,2014-11-13 21:51:26.977,0,2014-11-13 21:44:53.658,0
2014-11-13 21:51:34.219,3502,116.7333,0,0,0,0,0,0,0,-1,0.7180939,-0.6569214,0.1319275,32.60335,-12.11647,5.832062,307.3879,310.4711,10,-0.04919391,-0.1124355,0.02294473,-0.1894743,1.743702,0.7264807,0.01667268,-0.07084604,0.04584533,-0.02041279,0.001141857,0.001474196,172.17.160.76,0.0.0.0,4,unknown,2,2014-11-13 21:51:26.977,0,2014-11-13 21:44:53.658,0
2014-11-13 21:51:34.252,3503,116.7667,0,0,0,0,0,0,0,-1,0.7356262,-0.6621246,0.1259613,32.49998,-12.28875,5.731506,307.4003,310.4835,10,-0.04707776,-0.1038798,0.03041223,-0.1907918,1.743675,0.7279426,0.0188482,-0.02624114,0.04288907,-0.01732279,0.008413712,0.003508121,172.17.160.76,0.0.0.0,4,unknown,2,2014-11-13 21:51:26.977,0,2014-11-13 21:44:53.658,0
2014-11-13 21:51:34.285,3504,116.8,0,0,0,0,0,0,0,-1,0.7359161,-0.6680603,0.1251984,32.87899,-12.39211,5.832092,307.4406,310.5237,10,-0.04283908,-0.1165932,0.03563682,-0.1919752,1.743299,0.72938,0.02209971,-0.04429096,0.04807863,0.00110429,0.004282818,-0.002017768,172.17.160.76,0.0.0.0,4,unknown,2,2014-11-13 21:51:26.977,0,2014-11-13 21:44:53.658,0
2014-11-13 21:51:34.319,3505,116.8333,0,0,0,0,0,0,0,-1,0.7365112,-0.6702728,0.1341553,33.258,-12.6333,6.200836,307.409,310.4922,10,-0.07054394,-0.1293865,0.02824282,-0.1934021,1.741671,0.7313532,0.01242087,-0.08666376,0.06487488,-0.003741528,-0.003997649,-9.434526e-05,172.17.160.76,0.0.0.0,4,unknown,2,2014-11-13 21:51:26.977,0,2014-11-13 21:44:53.658,0
2014-11-13 21:51:34.352,3506,116.8667,0,0,0,0,0,0,0,-1,0.7478485,-0.6684113,0.1379242,33.36136,-12.3232,6.435455,307.3564,310.4396,10,-0.0768868,-0.058189,0.0286415,-0.194478,1.740731,0.7340006,-0.007752939,-0.005941918,0.05900694,-0.003503477,0.003494074,0.01137736,172.17.160.76,0.0.0.0,4,unknown,2,2014-11-13 21:51:26.977,0,2014-11-13 21:44:53.658,0
2014-11-13 21:51:34.386,3507,116.9,0,0,0,0,0,0,0,-1,0.7610779,-0.6672363,0.1381073,33.36136,-12.39211,6.301392,307.3263,310.4095,10,-0.07786497,-0.02221183,0.008666459,-0.1946073,1.740967,0.7342988,-0.009835895,0.007777424,0.04634833,0.0162696,0.001655597,0.01221534,172.17.160.76,0.0.0.0,4,unknown,2,2014-11-13 21:51:26.977,0,2014-11-13 21:44:53.658,0
2014-11-13 21:51:34.419,3508,116.9333,0,0,0,0,0,0,0,-1,0.7519226,-0.6600647,0.1386719,33.29245,-12.46102,6.234344,307.3002,310.3834,10,-0.07892784,-0.03073607,0.005441105,-0.1946898,1.741826,0.7341541,-0.01081315,0.04375501,0.02637009,0.0344098,-0.001030592,0.01272971,172.17.160.76,0.0.0.0,4,unknown,2,2014-11-13 21:51:26.977,0,2014-11-13 21:44:53.658,0
2014-11-13 21:51:34.451,3509,116.9667,0,0,0,0,0,0,0,-1,0.7485199,-0.6416473,0.1495514,33.08572,-12.46102,6.301422,307.2481,310.3313,10,-0.06280906,-0.03532204,-0.03816416,-0.1949852,1.744554,0.7328897,-0.005262572,0.02432635,-0.0130559,0.007006854,0.01849219,0.01722614,172.17.160.76,0.0.0.0,4,unknown,2,2014-11-13 21:51:26.977,0,2014-11-13 21:44:53.658,0
2014-11-13 21:51:34.486,3510,117,0,0,0,0,0,0,0,-1,0.7706451,-0.6463928,0.1348724,32.9479,-13.01231,6.301422,307.1992,310.2824,10,-0.02118145,-0.02695385,-0.05313672,-0.1960333,1.747032,0.7303604,0.03108468,0.05280863,-0.03852401,0.024768,0.02921401,0.01499412,172.17.160.76,0.0.0.0,4,unknown,2,2014-11-13 21:51:26.977,0,2014-11-13 21:44:53.658,0
2014-11-13 21:51:34.519,3511,117.0333,0,0,0,0,0,0,0,-1,0.7478333,-0.6408234,0.1422424,33.70591,-13.28796,6.301422,307.1777,310.2609,10,-0.01918914,-0.157551,-0.04003264,-0.1983249,1.748451,0.7258024,0.05869687,-0.05978626,-0.03180177,0.03249725,0.03247969,0.005696472,172.17.160.76,0.0.0.0,4,unknown,2,2014-11-13 21:51:26.977,0,2014-11-13 21:44:53.658,0
2014-11-13 21:51:34.552,3512,117.0667,0,0,0,0,0,0,0,-1,0.7440491,-0.6447906,0.1472168,33.77482,-13.42578,6.167358,307.1781,310.2613,10,-0.015951,-0.1086809,-0.0408489,-0.1998127,1.747936,0.7240323,0.04798466,-0.09158666,-0.02238017,0.01041518,0.02158748,0.01023311,172.17.160.76,0.0.0.0,4,unknown,2,2014-11-13 21:51:26.977,0,2014-11-13 21:44:53.658,0
2014-11-13 21:51:34.586,3513,117.1,0,0,0,0,0,0,0,-1,0.7402191,-0.6425781,0.142334,33.77482,-13.15013,6.167358,307.1814,310.2646,10,-0.004208327,-0.0661428,-0.03536145,-0.2012755,1.747795,0.7230114,0.05122372,-0.04271567,-0.02319812,0.0002250652,0.01426101,0.01261333,172.17.160.76,0.0.0.0,4,unknown,2,2014-11-13 21:51:26.977,0,2014-11-13 21:44:53.658,0
2014-11-13 21:51:34.619,3514,117.1333,0,0,0,0,0,0,0,-1,0.749176,-0.6474762,0.1249542,33.46473,-12.84003,6.33493,307.1781,310.2613,10,-0.02877812,-0.06919851,-0.01936331,-0.2057969,1.751979,0.7207537,0.04694705,0.006295217,-0.005946142,0.003604225,0.0187158,-4.69628e-06,172.17.160.76,0.0.0.0,4,unknown,2,2014-11-13 21:51:26.977,0,2014-11-13 21:44:53.658,0
2014-11-13 21:51:34.652,3515,117.1667,0,0,0,0,0,0,0,-1,0.7368927,-0.6494446,0.1236267,33.15463,-12.3232,6.234344,307.1721,310.2553,10,-0.03938602,-0.08422939,-0.04063238,-0.2070032,1.75237,0.7196833,0.0373215,-0.01278871,-0.0007065657,0.009524046,0.01167036,-0.01084257,172.17.160.76,0.0.0.0,4,unknown,2,2014-11-13 21:51:26.977,0,2014-11-13 21:44:53.658,0
2014-11-13 21:51:34.685,3516,117.2,0,0,0,0,0,0,0,-1,0.7102814,-0.6502686,0.1283569,33.01681,-12.73666,6.301392,307.1621,310.2453,10,-0.0425906,-0.08421182,-0.03849733,-0.2073455,1.751504,0.7187963,0.02353897,-0.0193682,-0.02828934,-0.01323232,0.007279935,-0.008643793,172.17.160.76,0.0.0.0,4,unknown,2,2014-11-13 21:51:26.977,0,2014-11-13 21:44:53.658,0
2014-11-13 21:51:34.719,3517,117.2333,0,0,0,0,0,0,0,-1,0.7156677,-0.6601562,0.1231079,33.22354,-12.66776,6.234344,307.1653,310.2484,10,-0.0341364,-0.0978701,-0.01737127,-0.2080863,1.751369,0.718619,0.02666504,-0.02451557,-0.006034673,-0.03019576,0.008077292,-0.006825789,172.17.160.76,0.0.0.0,4,unknown,2,2014-11-13 21:51:26.977,0,2014-11-13 21:44:53.658,0
2014-11-13 21:51:34.752,3518,117.2667,0,0,0,0,0,0,0,-1,0.7131958,-0.6643982,0.1161346,33.22354,-12.80557,6.301392,307.1678,310.251,10,-0.009625729,-0.1010542,-0.01535685,-0.2088056,1.751204,0.7191055,0.03303581,-0.03190938,0.0002738819,-0.02830081,0.005345862,-0.005424918,172.17.160.76,0.0.0.0,4,unknown,2,2014-11-13 21:51:26.977,0,2014-11-13 21:44:53.658,0
2014-11-13 21:51:34.786,3519,117.3,0,0,0,0,0,0,0,-1,0.6980438,-0.6621704,0.08604431,33.43027,-12.2543,5.8992,307.2135,310.2967,10,0.1053158,-0.2560597,0.008872055,-0.2141105,1.749686,0.7207615,0.1480339,-0.1413008,0.01519887,-0.03451059,-0.002381289,-0.02936006,172.17.160.76,0.0.0.0,4,unknown,2,2014-11-13 21:51:26.977,0,2014-11-13 21:44:53.658,0
2014-11-13 21:51:34.819,3520,117.3333,0,0,0,0,0,0,0,-1,0.6250916,-0.6733246,0.09458923,33.29245,-12.46102,5.429962,309.6715,312.7547,10,0.1080394,-0.4528902,0.1160965,-0.219828,1.745028,0.7228988,0.1818138,-0.317229,0.07890344,-0.06310748,0.0005047572,-0.04532368,172.17.160.76,0.0.0.0,4,unknown,2,2014-11-13 21:51:26.977,0,2014-11-13 21:44:53.658,0
2014-11-13 21:51:34.852,3521,117.3667,0,0,0,0,0,0,0,-1,0.5874786,-0.6595764,0.08906555,33.36136,-12.39211,5.228821,310.9788,314.062,10,0.2577911,-0.3972627,0.3164488,-0.231271,1.736735,0.7292449,0.2284078,-0.3660522,0.2291589,-0.1271738,-0.002333321,-0.0235294,172.17.160.76,0.0.0.0,4,unknown,2,2014-11-13 21:51:26.977,0,2014-11-13 21:44:53.658,0
2014-11-13 21:51:34.886,3522,117.4,0,0,0,0,0,0,0,-1,0.5835266,-0.6741028,0.09455872,33.49918,-12.87448,5.295868,309.4539,312.537,10,0.3832238,-0.4368735,0.4261646,-0.245816,1.736339,0.737107,0.3654909,-0.3490557,0.3784039,-0.1488578,0.009001709,-0.03428894,172.17.160.76,0.0.0.0,4,unknown,2,2014-11-13 21:51:26.977,0,2014-11-13 21:44:53.658,0
2014-11-13 21:51:34.919,3523,117.4333,0,0,0,0,0,0,0,-1,0.5371704,-0.7755432,0.1582642,32.87899,-13.56359,5.295868,308.4941,311.5773,10,0.562229,-0.5357369,0.4313426,-0.2664347,1.739114,0.7477508,0.504838,-0.3952013,0.467865,-0.1402624,-0.01210159,-0.01757716,172.17.160.76,0.0.0.0,4,unknown,2,2014-11-13 21:51:26.977,0,2014-11-13 21:44:53.658,0
2014-11-13 21:51:34.952,3524,117.4667,0,0,0,0,0,0,0,-1,0.4911194,-0.7966309,0.1356049,32.6378,-13.9426,4.994202,309.2823,312.3655,10,0.8051916,-0.7070091,0.4199776,-0.2945629,1.744513,0.7579705,0.7042122,-0.5167175,0.4293265,-0.2062996,-0.09489967,0.0214476,172.17.160.76,0.0.0.0,4,unknown,2,2014-11-13 21:51:26.977,0,2014-11-13 21:44:53.658,0
2014-11-13 21:51:34.986,3525,117.5,0,0,0,0,0,0,0,-1,0.4684296,-0.8511963,0.1534576,32.49998,-13.9426,4.726044,310.0986,313.1818,10,0.883998,-0.7866877,0.4266933,-0.3186389,1.749271,0.7636163,0.8725277,-0.6410543,0.4375948,-0.2197466,-0.1050927,0.007368619,172.17.160.76,0.0.0.0,4,unknown,2,2014-11-13 21:51:26.977,0,2014-11-13 21:44:53.658,0
2014-11-13 21:51:35.019,3526,117.5333,0,0,0,0,0,0,0,-1,0.4199829,-0.9260712,0.2173767,32.2588,-14.39051,3.955109,313.4056,316.4888,10,1.431452,-1.229643,0.4785692,-0.4176975,1.764461,0.7785983,1.375164,-1.084947,0.5034327,-0.2887238,-0.2231633,0.06935074,172.17.160.76,0.0.0.0,4,unknown,2,2014-11-13 21:51:26.977,0,2014-11-13 21:44:53.658,0
2014-11-13 21:51:35.052,3527,117.5667,0,0,0,0,0,0,0,-1,0.50383,-1.100555,0.2605286,32.36216,-14.56279,3.854553,314.4891,317.5723,10,1.880775,-1.551053,0.5792194,-0.4887414,1.777605,0.7839057,1.803408,-1.34414,0.539739,-0.2489948,-0.2558023,0.1117445,172.17.160.76,0.0.0.0,4,unknown,2,2014-11-13 21:51:26.977,0,2014-11-13 21:44:53.658,0
2014-11-13 21:51:35.085,3528,117.6,0,0,0,0,0,0,0,-1,0.6618652,-1.096771,0.4120789,32.53444,-15.01071,3.48587,316.7261,319.8093,10,2.181458,-2.204463,0.7476742,-0.5783001,1.792003,0.7899166,2.133977,-1.901844,0.7202621,-0.1226201,-0.4279042,0.126137,172.17.160.76,0.0.0.0,4,unknown,2,2014-11-13 21:51:26.977,0,2014-11-13 21:44:53.658,0
2014-11-13 21:51:35.118,3529,117.6333,0,0,0,0,0,0,0,-1,0.6532288,-1.049698,0.5842438,32.49998,-15.11407,3.72049,317.1158,320.1989,10,2.667316,-2.594217,0.3818371,-0.6839589,1.799055,0.7949904,2.566708,-2.482042,0.6009462,-0.02448883,-0.3360699,0.3291923,172.17.160.76,0.0.0.0,4,unknown,2,2014-11-13 21:51:26.977,0,2014-11-13 21:44:53.658,0
2014-11-13 21:51:35.152,3530,117.6667,0,0,0,0,0,0,0,-1,0.7242737,-1.165222,0.5249939,32.53444,-15.49307,3.150665,322.2156,325.2988,10,3.12126,-2.39966,0.1423284,-0.7637159,1.805694,0.7892699,2.94732,-2.475384,0.2386521,-0.03179181,-0.3398587,0.4203075,172.17.160.76,0.0.0.0,4,unknown,2,2014-11-13 21:51:26.977,0,2014-11-13 21:44:53.658,0
2014-11-13 21:51:35.186,3531,117.7,0,0,0,0,0,0,0,-1,1.094025,-1.188629,0.7357788,33.01681,-15.49307,3.552856,324.0573,327.1404,10,4.241402,-1.246009,-0.531955,-1.002042,1.874722,0.7466985,3.896983,-1.450161,-0.1448233,0.2588844,-0.567973,0.2855293,172.17.160.76,0.0.0.0,4,unknown,2,2014-11-13 21:51:26.977,0,2014-11-13 21:44:53.658,0
2014-11-13 21:51:35.219,3532,117.7333,0,0,0,0,0,0,0,-1,1.124237,-1.251953,0.734024,33.32691,-15.25189,3.653381,327.9657,331.0489,10,4.439203,-1.25075,-0.7259103,-1.104275,1.917547,0.7132392,4.308734,-1.180058,-0.5143386,0.3391483,-0.5562235,0.4204696,172.17.160.76,0.0.0.0,4,unknown,2,2014-11-13 21:51:26.977,0,2014-11-13 21:44:53.658,0
2014-11-13 21:51:35.252,3533,117.7667,0,0,0,0,0,0,0,-1,1.13501,-1.144119,0.8023682,33.98156,-14.04596,5.42984,336.2769,339.36,10,4.95334,-0.6161852,-1.370937,-1.305304,1.996032,0.6107625,4.734962,-0.9572839,-1.1007,0.3230369,-0.7693575,0.3460673,172.17.160.76,0.0.0.0,4,unknown,2,2014-11-13 21:51:26.977,0,2014-11-13 21:44:53.658,0
2014-11-13 21:51:35.286,3534,117.8,0,0,0,0,0,0,0,-1,1.126648,-1.31839,0.7013855,34.80848,-12.59884,6.904663,353.2751,356.3582,10,5.421129,-0.5424353,-1.990082,-1.443624,2.050951,0.5094689,5.265384,-0.4985846,-1.534417,0.3607221,-0.6564057,0.3991139,172.17.160.76,0.0.0.0,4,unknown,2,2014-11-13 21:51:26.977,0,2014-11-13 21:44:53.658,0
2014-11-13 21:51:35.319,3535,117.8333,0,0,0,0,0,0,0,-1,1.131683,-1.19223,0.4996796,36.11778,-9.635681,9.384979,27.85623,30.93942,10,5.505379,-0.1486587,-2.607168,-1.647304,2.111783,0.285241,5.495373,-0.185551,-2.423151,0.2464814,-0.9868303,0.1809665,172.17.160.76,0.0.0.0,4,unknown,2,2014-11-13 21:51:26.977,0,2014-11-13 21:44:53.658,0
2014-11-13 21:51:35.352,3536,117.8667,0,0,0,0,0,0,0,-1,1.102936,-1.004883,0.3434296,36.60015,-7.568367,10.32346,44.36631,47.4495,10,5.56421,-0.1710101,-3.032099,-1.75049,2.131154,0.1280749,5.650345,-0.06684843,-2.877421,0.293509,-1.035681,-0.1004237,172.17.160.76,0.0.0.0,4,unknown,2,2014-11-13 21:51:26.977,0,2014-11-13 21:44:53.658,0
2014-11-13 21:51:35.386,3537,117.9,0,0,0,0,0,0,0,-1,1.102036,-0.8770447,0.2776337,37.18589,-5.053139,10.82623,40.40546,43.48866,10,5.524343,-0.1204324,-3.232303,-1.782499,2.133397,0.0728417,5.631541,-0.1050607,-3.014483,0.281128,-1.025276,-0.1432708,172.17.160.76,0.0.0.0,4,unknown,2,2014-11-13 21:51:26.977,0,2014-11-13 21:44:53.658,0
2014-11-13 21:51:35.419,3538,117.9333,0,0,0,0,0,0,0,-1,1.009308,-0.5360718,-0.06652832,38.32291,4.1464,11.26193,88.61131,91.6945,10,4.983093,-0.1076338,-3.683462,-1.95781,2.11329,-0.2717019,5.254961,-0.08294117,-3.628616,0.2700861,-0.925842,-0.4408305,172.17.160.76,0.0.0.0,4,unknown,2,2014-11-13 21:51:26.977,0,2014-11-13 21:44:53.658,0
2014-11-13 21:51:35.452,3539,117.9667,0,0,0,0,0,0,0,-1,0.8809357,-0.3085938,-0.248291,38.49519,7.350739,10.55807,102.9068,105.99,10,4.842286,-0.1073478,-3.654273,-2.011602,2.094643,-0.3868365,5.050566,-0.04164558,-3.665919,0.2073905,-0.9133323,-0.5297809,172.17.160.76,0.0.0.0,4,unknown,2,2014-11-13 21:51:26.977,0,2014-11-13 21:44:53.658,0
2014-11-13 21:51:35.485,3540,118,0,0,0,0,0,0,0,-1,0.6251984,0.1746216,-0.4015808,37.11699,13.82832,8.547028,132.9222,136.0054,10,3.708945,-0.1213943,-3.615074,-2.091323,2.056291,-0.5496907,4.336953,-0.1392567,-3.550182,0.1267822,-0.8310173,-0.6461933,172.17.160.76,0.0.0.0,4,unknown,2,2014-11-13 21:51:26.977,0,2014-11-13 21:44:53.658,0
2014-11-13 21:51:35.519,3541,118.0333,0,0,0,0,0,0,0,-1,0.51091,0.4134369,-0.4851685,35.8766,16.72256,7.273346,145.7964,148.8796,10,3.22523,0.478586,-3.552784,-2.181453,2.003351,-0.7456865,3.513501,0.3482652,-3.627327,-0.08183311,-0.4619998,-0.7506052,172.17.160.76,0.0.0.0,4,unknown,2,2014-11-13 21:51:26.977,0,2014-11-13 21:44:53.658,0
2014-11-13 21:51:35.552,3542,118.0667,0,0,0,0,0,0,0,-1,0.2179565,0.6741943,-0.5398407,30.84613,23.95816,3.72049,186.7165,189.7997,10,2.537719,0.0586982,-3.33694,-2.29638,1.93991,-0.967702,2.697144,0.303875,-3.364441,-0.2358703,-0.2296361,-0.7750413,172.17.160.76,0.0.0.0,4,unknown,2,2014-11-13 21:51:26.977,0,2014-11-13 21:44:53.658,0
2014-11-13 21:51:35.586,3543,118.1,0,0,0,0,0,0,0,-1,0.2511597,0.7724762,-0.4783936,28.98555,25.68092,2.111603,194.6373,197.7205,10,2.433329,-0.08092175,-3.399911,-2.345064,1.900661,-1.047903,2.557107,-0.0006385483,-3.314569,-0.2545086,-0.1921835,-0.7016006,172.17.160.76,0.0.0.0,4,unknown,2,2014-11-13 21:51:26.977,0,2014-11-13 21:44:53.658,0
2014-11-13 21:51:35.619,3544,118.1333,0,0,0,0,0,0,0,-1,0.193512,0.9043121,-0.6652222,26.95269,27.36923,0.87146,191.9263,195.0095,10,2.381251,0.05071511,-3.419191,-2.406571,1.844841,-1.127015,2.5008,-0.01493543,-3.382369,-0.1621765,-0.1306582,-0.5945894,172.17.160.76,0.0.0.0,4,unknown,2,2014-11-13 21:51:26.977,0,2014-11-13 21:44:53.658,0
2014-11-13 21:51:35.652,3545,118.1667,0,0,0,0,0,0,0,-1,0.07286072,1.042618,-0.646698,22.57687,29.95337,-1.575317,211.7023,214.7855,10,2.184942,-1.106552,-3.308849,-2.667933,1.585933,-1.310214,2.213041,-0.8693236,-3.271152,-0.2141568,0.09564956,-0.6355372,172.17.160.76,0.0.0.0,4,unknown,2,2014-11-13 21:51:26.977,0,2014-11-13 21:44:53.658,0
2014-11-13 21:51:35.686,3546,118.2,0,0,0,0,0,0,0,-1,0.01502991,1.198975,-0.5467224,18.44225,31.74504,-4.12265,219.8463,222.9295,10,2.358507,-1.786408,-3.414981,-3.07346,1.153579,-1.395591,2.358855,-1.476693,-3.348138,-0.0967515,0.107625,-0.5692893,172.17.160.76,0.0.0.0,4,unknown,2,2014-11-13 21:51:26.977,0,2014-11-13 21:44:53.658,0
2014-11-13 21:51:35.719,3547,118.2333,0,0,0,0,0,0,0,-1,-0.06359863,1.099701,-0.5744629,16.13375,31.8484,-5.764984,219.6825,222.7657,10,2.360907,-1.813693,-3.510667,2.197738,0.07919546,-1.395547,2.442023,-1.997362,-3.486,-0.08947721,0.1970644,-0.43572,172.17.160.76,0.0.0.0,4,unknown,2,2014-11-13 21:51:26.977,0,2014-11-13 21:44:53.658,0
2014-11-13 21:51:35.752,3548,118.2667,0,0,0,0,0,0,0,-1,0.06985474,1.009354,-0.4248352,10.62091,31.64166,-9.116791,228.7107,231.7939,10,2.433596,-1.500701,-3.850027,1.877982,-0.2713558,-1.339643,2.428377,-1.747708,-3.493126,-0.002190996,0.1262982,-0.3537455,172.17.160.76,0.0.0.0,4,unknown,2,2014-11-13 21:51:26.977,0,2014-11-13 21:44:53.658,0
2014-11-13 21:51:35.786,3549,118.3,0,0,0,0,0,0,0,-1,-0.08253479,0.9066162,-0.4692383,7.588852,31.15929,-11.12784,231.1592,234.2424,10,2.5505,-1.668594,-4.126273,1.620467,-0.5637534,-1.224183,2.560272,-1.427659,-4.020553,0.2513854,0.06882501,-0.1376898,172.17.160.76,0.0.0.0,4,unknown,2,2014-11-13 21:51:26.977,0,2014-11-13 21:44:53.658,0
2014-11-13 21:51:35.818,3550,118.3333,0,0,0,0,0,0,0,-1,-0.01133728,0.8282013,-0.3315735,0.4566231,29.88443,-14.04385,234.9105,237.9937,10,3.371862,-2.938708,-4.9693,1.472097,-0.7818086,-1.034262,2.968957,-2.694629,-4.471394,0.3140177,0.223095,-0.05089543,172.17.160.76,0.0.0.0,4,unknown,2,2014-11-13 21:51:26.977,0,2014-11-13 21:44:53.658,0
2014-11-13 21:51:35.852,3551,118.3667,0,0,0,0,0,0,0,-1,-0.3447723,0.4944763,-0.2302856,-6.537788,26.61118,-17.0939,228.8958,231.979,10,3.645461,-2.978353,-4.854832,1.44095,-0.8645049,-0.9193601,3.439331,-2.872726,-4.95176,0.4499422,0.0329875,0.06194437,172.17.160.76,0.0.0.0,4,unknown,2,2014-11-13 21:51:26.977,0,2014-11-13 21:44:53.658,0
2014-11-13 21:51:35.885,3552,118.4,0,0,0,0,0,0,0,-1,-0.4607239,0.1666565,-0.197876,-14.39358,20.54706,-19.23911,240.4505,243.5336,10,4.187452,-2.588993,-4.900455,1.453181,-1.001757,-0.6112211,4.135311,-2.748118,-4.869853,0.2455462,-0.2209474,0.2420948,172.17.160.76,0.0.0.0,4,unknown,2,2014-11-13 21:51:26.977,0,2014-11-13 21:44:53.658,0
2014-11-13 21:51:35.919,3553,118.4333,0,0,0,0,0,0,0,-1,-0.8426666,-0.1459198,-0.2400208,-17.90801,17.37717,-20.31168,241.4385,244.5217,10,4.390985,-1.91392,-3.994341,1.494834,-1.051134,-0.4201258,4.431649,-2.005109,-4.6728,0.2257626,-0.3522875,0.2511172,172.17.160.76,0.0.0.0,4,unknown,2,2014-11-13 21:51:26.977,0,2014-11-13 21:44:53.658,0
2014-11-13 21:51:35.952,3554,118.4667,0,0,0,0,0,0,0,-1,-1.074066,-0.5108185,-0.6681519,-23.45531,9.073463,-20.68033,242.0885,245.1717,10,4.635218,-2.763303,-2.478624,1.582679,-1.103817,-0.1954921,4.676235,-2.192666,-3.459307,-0.03156208,-0.5314991,-0.1092722,172.17.160.76,0.0.0.0,4,unknown,2,2014-11-13 21:51:26.977,0,2014-11-13 21:44:53.658,0
2014-11-13 21:51:35.986,3555,118.5,0,0,0,0,0,0,0,-1,-1.403992,-0.7746735,-0.6513367,-26.86638,1.803406,-18.63571,241.4645,244.5477,10,4.612177,-3.123611,-0.940225,1.678468,-1.170821,-0.06600139,4.669419,-2.957579,-1.747954,-0.155001,-0.576772,-0.2796041,172.17.160.76,0.0.0.0,4,unknown,2,2014-11-13 21:51:26.977,0,2014-11-13 21:44:53.658,0
2014-11-13 21:51:36.019,3556,118.5333,0,0,0,0,0,0,0,-1,-1.605286,-0.9231415,-0.9324036,-27.48657,-1.021919,-16.69168,240.0291,243.1123,10,4.650764,-3.016607,1.138576,1.805118,-1.25717,-0.008710245,4.599401,-2.939748,0.6173833,-0.5924703,-0.8995793,-0.4214822,172.17.160.76,0.0.0.0,4,unknown,2,2014-11-13 21:51:26.977,0,2014-11-13 21:44:53.658,0
2014-11-13 21:51:36.052,3557,118.5667,0,0,0,0,0,0,0,-1,-1.34465,-1.244476,-1.08316,-29.6917,-3.709427,-12.46848,230.9007,233.9839,10,4.879395,-3.158979,4.82562,2.010606,-1.376044,-0.03564411,4.967868,-3.155581,3.164546,-0.5958826,-0.9203411,-0.8795817,172.17.160.76,0.0.0.0,4,unknown,2,2014-11-13 21:51:26.977,0,2014-11-13 21:44:53.658,0
2014-11-13 21:51:36.086,3558,118.6,0,0,0,0,0,0,0,-1,-1.268951,-1.494522,-1.067551,-31.24219,-2.158936,-7.541412,214.5011,217.5842,10,4.719619,-3.294955,6.51432,2.122932,-1.430777,-0.1021607,4.946862,-3.092999,4.843158,-0.3932149,-1.197717,-0.9294947,172.17.160.76,0.0.0.0,4,unknown,2,2014-11-13 21:51:26.977,0,2014-11-13 21:44:53.658,0
2014-11-13 21:51:36.118,3559,118.6333,0,0,0,0,0,0,0,-1,-1.001785,-1.796722,-0.8662872,-32.17249,4.525383,-2.78186,187.1453,190.2285,10,4.089945,-2.265536,9.837107,2.34132,-1.510256,-0.3522339,4.496542,-2.931424,8.212715,-0.2476549,-1.979364,-0.8670852,172.17.160.76,0.0.0.0,4,unknown,2,2014-11-13 21:51:26.977,0,2014-11-13 21:44:53.658,0
2014-11-13 21:51:36.152,3560,118.6667,0,0,0,0,0,0,0,-1,-0.02275085,-2.477509,-0.5632935,-30.34636,9.004555,-1.575226,171.5055,174.5887,10,2.11649,0.8258916,12.45504,2.624471,-1.434312,-0.8558221,2.928684,-0.1246038,12.00694,0.1727098,-3.064497,-0.5374465,172.17.160.76,0.0.0.0,4,unknown,2,2014-11-13 21:51:26.977,0,2014-11-13 21:44:53.658,0
2014-11-13 21:51:36.186,3561,118.7,0,0,0,0,0,0,0,-1,0.4814911,-2.668961,-0.4270172,-27.65885,14.86194,-1.374115,154.9818,158.065,10,2.11649,0.8258916,12.45504,2.624471,-1.434312,-0.8558221,2.928684,-0.1246038,12.00694,0.1727098,-3.064497,-0.5374465,172.17.160.76,0.0.0.0,4,unknown,2,2014-11-13 21:51:26.977,0,2014-11-13 21:44:53.658,0
2014-11-13 21:51:36.226,3562,118.7333,0,0,0,0,0,0,0,-1,4.288071,0.04098511,0.4199219,-3.057812,31.60718,1.240295,89.37229,92.45548,10,-5.662904,3.266355,7.559006,-1.212685,1.144543,-1.398772,-4.157791,4.163197,10.0594,3.082086,-3.148265,0.5089923,172.17.160.76,0.0.0.0,4,unknown,2,2014-11-13 21:51:26.977,0,2014-11-13 21:44:53.658,0
2014-11-13 21:51:36.262,3563,118.7667,0,0,0,0,0,0,0,-1,4.288071,0.04098511,0.4199219,-3.057812,31.60718,1.240295,89.37229,92.45548,10,-5.818047,2.499723,6.490883,-0.876717,1.512711,-1.3206,-5.179931,3.838993,8.84931,3.422379,-2.620719,0.6149288,172.17.160.76,0.0.0.0,4,unknown,2,2014-11-13 21:51:26.977,0,2014-11-13 21:44:53.658,0
2014-11-13 21:51:36.299,3564,118.8,0,0,0,0,0,0,0,-1,-0.4956055,0.8175049,0.4526978,15.89256,30.29788,12.16705,57.32349,60.40668,10,-5.46836,-10.30755,10.99924,-0.3486203,1.953853,-0.8142664,-6.114118,-7.759598,8.832067,2.002519,1.707684,-0.3761616,172.17.160.76,0.0.0.0,4,unknown,2,2014-11-13 21:51:26.977,0,2014-11-13 21:44:53.658,0
2014-11-13 21:51:36.330,3565,118.8333,0,0,0,0,0,0,0,-1,-4.289139,-1.511078,1.254242,21.85331,26.54225,13.20612,140.6803,143.7635,10,0.2482743,-3.386178,14.72735,-0.310132,1.772106,-0.5627637,-4.093753,-11.05966,13.2282,-0.1777333,1.127882,-0.3562963,172.17.160.76,0.0.0.0,4,unknown,2,2014-11-13 21:51:26.977,0,2014-11-13 21:44:53.658,0
2014-11-13 21:51:36.352,3566,118.8667,0,0,0,0,0,0,0,-1,-1.180145,-4.344131,0.4880524,30.77722,15.27539,14.11111,120.585,123.6682,10,-0.5901182,14.82206,6.796259,-0.4100662,1.876231,0.06796022,1.413911,14.97237,9.105097,-5.354423,-2.204263,0.8163655,172.17.160.76,0.0.0.0,4,unknown,2,2014-11-13 21:51:26.977,0,2014-11-13 21:44:53.658,0
2014-11-13 21:51:36.393,3567,118.9,0,0,0,0,0,0,0,-1,0.858017,-2.585144,0.4866028,31.84533,3.663979,18.23376,315.1722,318.2554,10,-7.831345,9.531637,1.408494,-0.421852,2.282168,0.2500951,-5.650542,11.29093,2.776178,0.4550786,-2.738603,-0.1671839,172.17.160.76,0.0.0.0,4,unknown,2,2014-11-13 21:51:26.977,0,2014-11-13 21:44:53.658,0
2014-11-13 21:51:36.424,3568,118.9333,0,0,0,0,0,0,0,-1,0.3481293,-2.831329,1.008591,31.84533,3.663979,18.23376,315.1722,318.2554,10,-9.33312,9.187746,0.517477,-0.421852,2.282168,0.2500951,-5.650542,11.29093,2.776178,0.4550786,-2.738603,-0.1671839,172.17.160.76,0.0.0.0,4,unknown,2,2014-11-13 21:51:26.977,0,2014-11-13 21:44:53.658,0
2014-11-13 21:51:36.461,3569,118.9667,0,0,0,0,0,0,0,-1,0.7454834,-2.639893,1.413986,19.82046,-9.739105,26.24451,359.9289,3.012115,10,-8.744895,5.794091,-3.095713,0.04600496,2.685752,0.7589623,-8.968211,7.603713,-2.679471,0.6819124,-2.215167,0.7966546,172.17.160.76,0.0.0.0,4,unknown,2,2014-11-13 21:51:26.977,0,2014-11-13 21:44:53.658,0
2014-11-13 21:51:36.498,3570,119,0,0,0,0,0,0,0,-1,0.5655823,-2.544144,1.392044,15.99593,-14.25275,25.40656,354.5869,357.6701,10,-8.407071,5.074549,-3.240883,0.2399443,2.672885,0.8911737,-8.677316,5.860102,-3.078245,0.461569,-1.862083,0.8532686,172.17.160.76,0.0.0.0,4,unknown,2,2014-11-13 21:51:26.977,0,2014-11-13 21:44:53.658,0
2014-11-13 21:51:36.537,3571,119.0333,0,0,0,0,0,0,0,-1,0.4381561,-2.007065,0.7650452,9.931808,-23.62456,18.36789,197.712,200.7952,10,-4.864429,1.799926,-3.417877,1.035068,2.22422,1.104555,-5.324956,2.477756,-3.462083,0.05296513,-1.29509,0.765468,172.17.160.76,0.0.0.0,4,unknown,2,2014-11-13 21:51:26.977,0,2014-11-13 21:44:53.658,0
2014-11-13 21:51:36.573,3572,119.0667,0,0,0,0,0,0,0,-1,0.5687103,-2.096375,0.6786499,10.13854,-25.07168,15.41833,189.6062,192.6894,10,-3.942126,0.9335562,-2.987501,1.16851,2.12523,1.104373,-4.796851,1.865936,-3.400409,0.04096457,-1.197485,0.6708766,172.17.160.76,0.0.0.0,4,unknown,2,2014-11-13 21:51:26.977,0,2014-11-13 21:44:53.658,0
2014-11-13 21:51:36.609,3573,119.1,0,0,0,0,0,0,0,-1,0.5687103,-2.096375,0.6786499,11.37893,-26.24316,10.65881,182.4623,185.5455,10,-3.942126,0.9335562,-2.987501,1.28941,2.031985,1.097351,-4.324468,1.338969,-3.221316,0.02983679,-1.117062,0.5621392,172.17.160.76,0.0.0.0,4,unknown,2,2014-11-13 21:51:26.977,0,2014-11-13 21:44:53.658,0
2014-11-13 21:51:36.639,3574,119.1333,0,0,0,0,0,0,0,-1,0.2672119,-1.636368,0.5746613,12.82605,-26.03642,8.580719,182.8377,185.9209,10,-2.468338,0.3939843,-2.585067,1.820009,1.590276,0.9699007,-2.721917,0.1382575,-2.558538,-0.3701601,-1.042022,0.7047005,172.17.160.76,0.0.0.0,4,unknown,2,2014-11-13 21:51:26.977,0,2014-11-13 21:44:53.658,0
2014-11-13 21:51:36.658,3575,119.1667,0,0,0,0,0,0,0,-1,0.3661346,-1.563492,0.4950714,14.30762,-26.20869,6.938354,183.648,186.7312,10,-2.145238,0.6150517,-2.557515,1.820009,1.590276,0.9699007,-2.721917,0.1382575,-2.558538,-0.3701601,-1.042022,0.7047005,172.17.160.76,0.0.0.0,4,unknown,2,2014-11-13 21:51:26.977,0,2014-11-13 21:44:53.658,0
2014-11-13 21:51:36.686,3576,119.2,0,0,0,0,0,0,0,-1,0.6558838,-1.33902,0.2892151,17.16741,-25.69186,4.089325,184.857,187.9402,10,-1.431497,0.6623117,-2.021767,1.950391,1.512819,0.8684176,-1.588874,0.8620732,-2.318013,-0.06816757,-0.7052135,0.4195905,172.17.160.76,0.0.0.0,4,unknown,2,2014-11-13 21:51:26.977,0,2014-11-13 21:44:53.658,0
2014-11-13 21:51:36.719,3577,119.2333,0,0,0,0,0,0,0,-1,0.7787018,-1.147507,0.2126617,18.30443,-25.10612,3.31842,185.0403,188.1235,10,-1.220934,0.1615447,-1.625014,2.006483,1.493333,0.8043641,-1.296268,0.5838757,-1.850337,-0.005240776,-0.5702749,0.3103711,172.17.160.76,0.0.0.0,4,unknown,2,2014-11-13 21:51:26.977,0,2014-11-13 21:44:53.658,0
2014-11-13 21:51:36.752,3578,119.2667,0,0,0,0,0,0,0,-1,0.7738342,-0.8706818,0.04571533,20.23392,-23.72791,2.044739,185.7238,189.2449,10,-0.6539035,0.01251206,-0.9199134,2.068696,1.459382,0.726079,-0.7318477,0.03894068,-1.087869,0.01393301,-0.3089119,0.1896783,172.17.160.76,0.0.0.0,4,unknown,2,2014-11-13 21:51:26.977,0,2014-11-13 21:44:53.658,0
2014-11-13 21:51:36.786,3579,119.3,0,0,0,0,0,0,0,-1,0.7975922,-0.8451233,-0.05223083,21.02639,-22.52198,1.407867,186.9054,189.9886,10,-0.2805022,0.1239462,-0.6320017,2.0806,1.453356,0.7074101,-0.4470042,0.1239895,-0.7817192,0.01902204,-0.2208143,0.1347704,172.17.160.76,0.0.0.0,4,unknown,2,2014-11-13 21:51:26.977,0,2014-11-13 21:44:53.658,0
2014-11-13 21:51:36.819,3580,119.3333,0,0,0,0,0,0,0,-1,0.7620697,-0.7975311,-0.07833862,21.68104,-22.28079,0.9051514,187.1068,190.19,10,-0.05105067,-0.06575131,-0.4098871,2.086122,1.453303,0.6932132,-0.2129268,0.1899531,-0.6145343,0.03702504,-0.2197984,0.0647773,172.17.160.76,0.0.0.0,4,unknown,2,2014-11-13 21:51:26.977,0,2014-11-13 21:44:53.658,0
2014-11-13 21:51:36.852,3581,119.3667,0,0,0,0,0,0,0,-1,0.7372437,-0.7161713,-0.1208801,22.09451,-21.86733,1.173309,188.3845,191.4677,10,0.4779072,-0.2980386,-0.1806265,2.075545,1.455234,0.6765515,0.434677,-0.2981458,-0.2013058,-0.02860984,-0.09371028,-8.884515e-05,172.17.160.76,0.0.0.0,4,unknown,2,2014-11-13 21:51:26.977,0,2014-11-13 21:44:53.658,0
2014-11-13 21:51:36.886,3582,119.4,0,0,0,0,0,0,0,-1,0.6571198,-0.7681732,-0.1260376,22.54243,-22.24634,1.340881,189.2574,192.3406,10,0.6751121,0.1224213,-0.06875669,2.051836,1.466566,0.6744913,0.7000648,0.06277391,-0.090005,-0.06403273,-0.127453,-0.05365897,172.17.160.76,0.0.0.0,4,unknown,2,2014-11-13 21:51:26.977,0,2014-11-13 21:44:53.658,0
2014-11-13 21:51:36.919,3583,119.4333,0,0,0,0,0,0,0,-1,0.7458954,-0.6343689,-0.1459198,23.36935,-21.83288,2.078278,194.0491,197.1323,10,0.8331854,0.4521637,0.2699391,2.013609,1.503262,0.677289,0.7371384,0.4828018,0.09570427,-0.1064318,-0.132442,-0.1205081,172.17.160.76,0.0.0.0,4,unknown,2,2014-11-13 21:51:26.977,0,2014-11-13 21:44:53.658,0
2014-11-13 21:51:36.952,3584,119.4667,0,0,0,0,0,0,0,-1,0.7521515,-0.6181946,-0.3001404,23.64499,-21.9707,2.078278,194.3707,197.4539,10,0.788398,0.6608794,0.3274644,1.992829,1.526285,0.6825457,0.900759,0.5181689,0.287406,-0.05695448,-0.002148904,-0.1227746,172.17.160.76,0.0.0.0,4,unknown,2,2014-11-13 21:51:26.977,0,2014-11-13 21:44:53.658,0
2014-11-13 21:51:36.986,3585,119.5,0,0,0,0,0,0,0,-1,0.9341431,-0.1498718,-0.05361938,23.61053,-21.5917,2.446991,195.6672,198.7504,10,0.8609238,0.5266199,0.2819036,1.980825,1.539802,0.6862382,0.9443699,0.6227212,0.3461747,-0.03661496,-0.05875141,-0.1875734,172.17.160.76,0.0.0.0,4,walking,0,2014-11-13 21:51:36.868,0,2014-11-13 21:44:53.658,0
2014-11-13 21:51:37.019,3586,119.5333,0,0,0,0,0,0,0,-1,0.6570435,-0.7848206,-0.1581573,23.09371,-21.62614,3.821198,195.7762,198.8593,10,1.644883,-0.2833385,0.292748,1.898583,1.617035,0.6956552,1.901422,0.3711413,0.01539103,0.0820787,-0.0647542,-0.1144306,172.17.160.76,0.0.0.0,4,walking,0,2014-11-13 21:51:36.868,0,2014-11-13 21:44:53.658,0
2014-11-13 21:51:37.052,3587,119.5667,0,0,0,0,0,0,0,-1,0.7696075,-0.5726471,-0.1714172,23.12816,-21.31605,5.262482,198.4058,201.489,10,1.504173,-1.105162,0.08089671,1.809479,1.661154,0.7007425,1.51059,-0.9646981,0.2465304,-0.02073639,-0.006154547,-0.2276791,172.17.160.76,0.0.0.0,4,walking,0,2014-11-13 21:51:36.868,0,2014-11-13 21:44:53.658,0
2014-11-13 21:51:37.085,3588,119.6,0,0,0,0,0,0,0,-1,0.6801605,-0.4651794,-0.0375824,23.88618,-20.90259,6.335022,205.8309,208.9141,10,1.891988,-1.004705,0.1818758,1.744657,1.672266,0.6986312,1.782897,-0.9904726,0.08615258,-0.01715579,0.1004913,-0.2046547,172.17.160.76,0.0.0.0,4,walking,0,2014-11-13 21:51:36.868,0,2014-11-13 21:44:53.658,0
2014-11-13 21:51:37.119,3589,119.6333,0,0,0,0,0,0,0,-1,0.6569519,-0.4857788,0.02748108,24.19627,-20.86813,6.837769,208.5,211.5832,10,2.246428,-1.212145,0.3132029,1.668399,1.692597,0.6975995,2.050009,-0.9979489,0.2390278,-0.08054817,0.1772003,-0.1306978,172.17.160.76,0.0.0.0,4,walking,0,2014-11-13 21:51:36.868,0,2014-11-13 21:44:53.658,0
2014-11-13 21:51:37.152,3590,119.6667,0,0,0,0,0,0,0,-1,0.668335,-0.5393829,-0.02046204,24.50637,-20.42021,7.67569,214.679,217.7622,10,2.504896,-1.325789,0.4772278,1.610286,1.708025,0.6976895,2.313999,-1.146142,0.3306692,-0.1044154,0.165871,-0.09143553,172.17.160.76,0.0.0.0,4,walking,0,2014-11-13 21:51:36.868,0,2014-11-13 21:44:53.658,0
