time,timestamp,recordtime,lat,long,alt,speed,course,verticalAccuracy,horizontalAccuracy,locTimeStamp,accelerationX,accelerationY,accelerationZ,HeadingX,HeadingY,HeadingZ,TrueHeading,MagneticHeading,HeadingAccuracy,RotationX,RotationY,RotationZ,motionYaw,motionRoll,motionPitch,motionRotationRateX,motionRotationRateY,motionRotationRateZ,motionUserAccelerationX,motionUserAccelerationY,motionUserAccelerationZ,en0,pdp_ip0,DeviceOrientation,Activity,Activity Confidence,Activity Start,Steps,Last Step Date,State
2014-11-13 21:51:42.919,3763,125.4333,0,0,0,0,0,0,0,-1,0.8669434,-0.495636,-0.0403595,35.15303,-7.637299,2.212372,314.187,317.2702,10,0.1493932,-1.18374,-0.7031251,-0.2423163,1.5367,0.5325764,0.2588812,-1.131398,-0.7391682,0.02991391,-0.0161101,0.01415516,172.17.160.76,0.0.0.0,4,stationary,1,2014-11-13 21:51:42.123,0,2014-11-13 21:44:53.658,0
2014-11-13 21:51:42.952,3764,125.4667,0,0,0,0,0,0,0,-1,0.7643127,-0.4619598,-0.03735352,35.46313,-7.533936,1.709625,314.7264,317.8096,10,0.005544967,-1.090159,-0.7020937,-0.2511324,1.507551,0.5120779,0.190469,-1.098967,-0.669745,-0.003042018,-0.005646319,0.01473651,172.17.160.76,0.0.0.0,4,stationary,1,2014-11-13 21:51:42.123,0,2014-11-13 21:44:53.658,0
2014-11-13 21:51:42.986,3765,125.5,0,0,0,0,0,0,0,-1,0.7216492,-0.4541931,-0.06163025,35.46313,-7.327209,1.374481,314.5133,317.5965,10,0.005544967,-1.090159,-0.7020937,-0.2534123,1.497869,0.5055506,0.1393073,-1.069157,-0.6651505,-0.02739812,-0.0001467846,0.01575902,172.17.160.76,0.0.0.0,4,stationary,1,2014-11-13 21:51:42.123,0,2014-11-13 21:44:53.658,0
2014-11-13 21:51:43.019,3766,125.5333,0,0,0,0,0,0,0,-1,0.817688,-0.4711609,-0.1620636,35.15303,-7.430573,0.6034851,311.3819,314.4651,10,-0.1187336,-0.7798257,-0.4187014,-0.2577308,1.453944,0.4724659,-0.02071554,-0.7462229,-0.5450264,-0.09346759,-0.0100655,-0.03635273,172.17.160.76,0.0.0.0,4,stationary,1,2014-11-13 21:51:42.123,0,2014-11-13 21:44:53.658,0
2014-11-13 21:51:43.052,3767,125.5667,0,0,0,0,0,0,0,-1,0.7647552,-0.4384613,-0.1411591,35.04967,-7.258301,-0.2344666,312.8742,315.9574,10,-0.183124,-0.7467893,-0.2686173,-0.2578629,1.432589,0.4598321,-0.0863538,-0.7074099,-0.3333414,-0.08648034,-0.02612727,-0.03880434,172.17.160.76,0.0.0.0,4,stationary,1,2014-11-13 21:51:42.123,0,2014-11-13 21:44:53.658,0
2014-11-13 21:51:43.085,3768,125.6,0,0,0,0,0,0,0,-1,0.8144226,-0.407074,-0.2033234,35.04967,-6.293549,-0.9048157,313.9393,317.0225,10,-0.2653723,-0.4589031,-0.1415385,-0.2525007,1.4062,0.4511144,-0.1997621,-0.471065,-0.1384826,-0.1427271,0.009958607,-0.009703379,172.17.160.76,0.0.0.0,4,stationary,1,2014-11-13 21:51:42.123,0,2014-11-13 21:44:53.658,0
2014-11-13 21:51:43.119,3769,125.6333,0,0,0,0,0,0,0,-1,0.8549347,-0.4131012,-0.2012939,35.04967,-6.086815,-1.172974,313.9565,317.0397,10,-0.2429226,-0.3888066,-0.1444379,-0.2486698,1.396901,0.4479715,-0.1911827,-0.3434455,-0.122982,-0.1036001,0.02621667,-0.03704552,172.17.160.76,0.0.0.0,4,unknown,1,2014-11-13 21:51:43.050,0,2014-11-13 21:44:53.658,0
2014-11-13 21:51:43.152,3770,125.6667,0,0,0,0,0,0,0,-1,0.8666992,-0.3890839,-0.1876221,35.5665,-5.432159,-1.474579,313.4224,316.5056,10,-0.1874466,-0.4112927,-0.1638707,-0.2384752,1.37221,0.4390378,-0.1656435,-0.3614434,-0.1125578,-0.02207599,0.04590305,-0.01190166,172.17.160.76,0.0.0.0,4,unknown,1,2014-11-13 21:51:43.050,0,2014-11-13 21:44:53.658,0
2014-11-13 21:51:43.186,3771,125.7,0,0,0,0,0,0,0,-1,0.8632812,-0.3828278,-0.1782837,35.94551,-5.466614,-1.575134,307.9967,311.0799,10,-0.161778,-0.3731877,-0.1818113,-0.2361644,1.364125,0.4358206,-0.1207509,-0.344728,-0.1476668,-0.02395133,0.03828907,-0.01679834,172.17.160.76,0.0.0.0,4,unknown,1,2014-11-13 21:51:43.050,0,2014-11-13 21:44:53.658,0
2014-11-13 21:51:43.219,3772,125.7333,0,0,0,0,0,0,0,-1,0.8771057,-0.3883514,-0.184494,35.87659,-5.053162,-1.910278,308.8909,311.9741,10,-0.1414461,-0.3180304,-0.1932733,-0.2340731,1.353964,0.4304235,-0.0865134,-0.2779853,-0.1718577,-0.02422751,0.03442793,0.01723076,172.17.160.76,0.0.0.0,4,unknown,1,2014-11-13 21:51:43.050,0,2014-11-13 21:44:53.658,0
2014-11-13 21:51:43.256,3773,125.7667,0,0,0,0,0,0,0,-1,0.8635559,-0.4000397,-0.177124,35.22194,-4.46743,-2.346039,308.9744,312.0576,10,-0.09367216,-0.2632625,-0.1135527,-0.2329555,1.339901,0.4205683,-0.03547445,-0.2201897,-0.1133641,-0.02066593,0.01023855,0.034834,172.17.160.76,0.0.0.0,4,unknown,1,2014-11-13 21:51:43.050,0,2014-11-13 21:44:53.658,0
2014-11-13 21:51:43.286,3774,125.8,0,0,0,0,0,0,0,-1,0.8684845,-0.4076843,-0.1789856,35.04967,-4.088425,-2.580658,309.4454,312.5286,10,-0.09043163,-0.1771375,-0.1056809,-0.2329112,1.337852,0.41952,-0.02697644,-0.196697,-0.09734998,-0.02506175,0.007282451,0.03370138,172.17.160.76,0.0.0.0,4,unknown,1,2014-11-13 21:51:43.050,0,2014-11-13 21:44:53.658,0
2014-11-13 21:51:43.319,3775,125.8333,0,0,0,0,0,0,0,-1,0.87854,-0.4108887,-0.1983643,35.32531,-4.088425,-2.580658,309.0848,312.168,10,-0.08194946,-0.09824561,-0.0702683,-0.2345254,1.337254,0.4171766,-0.01522805,-0.04341721,-0.06260974,-0.01458536,-0.003998853,0.02223105,172.17.160.76,0.0.0.0,4,unknown,1,2014-11-13 21:51:43.050,0,2014-11-13 21:44:53.658,0
2014-11-13 21:51:43.352,3776,125.8667,0,0,0,0,0,0,0,-1,0.8774261,-0.4056549,-0.1964264,35.73877,-3.743866,-2.714722,309.7803,312.8635,10,-0.07879921,-0.08109379,-0.05002162,-0.234781,1.337358,0.4166774,-0.01100564,-0.02414625,-0.04341461,-0.009616115,-0.004638386,0.01600516,172.17.160.76,0.0.0.0,4,unknown,1,2014-11-13 21:51:43.050,0,2014-11-13 21:44:53.658,0
2014-11-13 21:51:43.386,3777,125.9,0,0,0,0,0,0,0,-1,0.8747711,-0.4062042,-0.2022552,35.73877,-3.812775,-2.781769,309.8424,312.9256,10,-0.08091376,-0.05771549,-0.0498906,-0.2348996,1.337551,0.416542,-0.01209257,-0.0145091,-0.03380531,-0.01029012,-0.003358456,0.01551031,172.17.160.76,0.0.0.0,4,unknown,1,2014-11-13 21:51:43.050,0,2014-11-13 21:44:53.658,0
2014-11-13 21:51:43.419,3778,125.9333,0,0,0,0,0,0,0,-1,0.8723602,-0.397934,-0.2068634,35.29086,-4.398506,-3.150421,310.4087,313.4919,10,-0.06695187,0.01121883,-0.06656358,-0.2349956,1.340122,0.4147003,-0.003443124,0.06822823,-0.05250483,-0.01967209,0.008659029,0.003977937,172.17.160.76,0.0.0.0,4,unknown,1,2014-11-13 21:51:43.050,0,2014-11-13 21:44:53.658,0
2014-11-13 21:51:43.452,3779,125.9667,0,0,0,0,0,0,0,-1,0.865799,-0.4006042,-0.2099152,35.32531,-4.639694,-3.049896,309.8303,312.9135,10,-0.05744439,0.001850364,-0.04011147,-0.2353199,1.342314,0.4136283,0.009314223,0.07362933,-0.03978509,-0.02331057,0.001711509,0.001557849,172.17.160.76,0.0.0.0,4,unknown,1,2014-11-13 21:51:43.050,0,2014-11-13 21:44:53.658,0
2014-11-13 21:51:43.485,3780,126,0,0,0,0,0,0,0,-1,0.8688202,-0.3850098,-0.2065582,35.22194,-4.536331,-3.217407,310.5778,313.6609,10,-0.05641427,0.02642548,-0.02194072,-0.2354331,1.343456,0.4137482,0.006028461,0.07810321,-0.01002556,-0.02626184,0.001439852,-0.003546334,172.17.160.76,0.0.0.0,4,unknown,1,2014-11-13 21:51:43.050,0,2014-11-13 21:44:53.658,0
2014-11-13 21:51:43.520,3781,126.0333,0,0,0,0,0,0,0,-1,0.8615265,-0.3909607,-0.1996155,35.87659,-4.432961,-3.519073,310.7825,313.8657,10,-0.02135403,0.1097462,0.03887123,-0.2361776,1.349045,0.4139823,0.0346397,0.1654527,0.02634455,-0.03293991,0.01361708,-0.008952513,172.17.160.76,0.0.0.0,4,unknown,1,2014-11-13 21:51:43.050,0,2014-11-13 21:44:53.658,0
2014-11-13 21:51:43.552,3782,126.0667,0,0,0,0,0,0,0,-1,0.8646851,-0.3907013,-0.2032928,35.77323,-4.053947,-3.351501,311.1781,314.2613,10,-0.02135403,0.1097462,0.03887123,-0.2363741,1.350623,0.4145315,0.03886089,0.1730075,0.04229112,-0.03366646,0.01004566,-0.005344449,172.17.160.76,0.0.0.0,4,unknown,1,2014-11-13 21:51:43.050,0,2014-11-13 21:44:53.658,0
2014-11-13 21:51:43.586,3783,126.1,0,0,0,0,0,0,0,-1,0.8795471,-0.3989868,-0.1907196,36.04887,-4.32959,-3.284515,312.6749,315.7581,10,-0.001017328,0.1116616,0.01226812,-0.2381285,1.358892,0.417696,0.06865954,0.1741689,0.05810684,-0.01520909,0.007035048,-0.01280824,172.17.160.76,0.0.0.0,4,unknown,1,2014-11-13 21:51:43.050,0,2014-11-13 21:44:53.658,0
2014-11-13 21:51:43.619,3784,126.1333,0,0,0,0,0,0,0,-1,0.8480835,-0.4102478,-0.1869659,35.94551,-4.501869,-2.781769,311.2699,314.3531,10,0.007736483,0.1132232,-0.06206018,-0.2392188,1.362582,0.4187237,0.06555301,0.1781956,0.02841782,-0.01432892,0.007607951,-0.001864323,172.17.160.76,0.0.0.0,4,unknown,1,2014-11-13 21:51:43.050,0,2014-11-13 21:44:53.658,0
2014-11-13 21:51:43.652,3785,126.1667,0,0,0,0,0,0,0,-1,0.8088074,-0.4382477,-0.2068634,35.97996,-4.605232,-2.882294,312.5188,315.602,10,-0.124813,0.8849466,-0.4534327,-0.2423878,1.376949,0.4151337,-0.04822744,0.5804728,-0.3182569,-0.09503664,-0.07457778,0.01067014,172.17.160.76,0.0.0.0,4,unknown,1,2014-11-13 21:51:43.050,0,2014-11-13 21:44:53.658,0
2014-11-13 21:51:43.686,3786,126.2,0,0,0,0,0,0,0,-1,0.8275146,-0.4346313,-0.2064362,36.39342,-4.260681,-2.144958,313.0225,316.1057,10,-0.1462049,1.72776,-0.5688618,-0.2430622,1.398165,0.4059581,-0.0448916,1.334391,-0.5255342,-0.09626142,-0.04334852,-0.04904981,172.17.160.76,0.0.0.0,4,unknown,1,2014-11-13 21:51:43.050,0,2014-11-13 21:44:53.658,0
2014-11-13 21:51:43.719,3787,126.2333,0,0,0,0,0,0,0,-1,0.8809509,-0.3447723,-0.08544922,36.32452,-3.640488,-1.474548,319.0966,322.1798,10,-0.4431718,1.234909,-0.140445,-0.2353205,1.498293,0.3763008,-0.3662952,1.540248,-0.3003354,-0.04179905,-0.03303009,-0.08848219,172.17.160.76,0.0.0.0,4,unknown,1,2014-11-13 21:51:43.050,0,2014-11-13 21:44:53.658,0
2014-11-13 21:51:43.752,3788,126.2667,0,0,0,0,0,0,0,-1,0.8327179,-0.2952881,0.01661682,36.53124,-3.571579,-1.139374,322.3009,325.3841,10,-0.4103771,1.162068,-0.07513949,-0.2273445,1.522972,0.3721569,-0.3766043,1.301438,-0.1242869,-0.04952917,0.01885323,-0.04091567,172.17.160.76,0.0.0.0,4,unknown,1,2014-11-13 21:51:43.050,0,2014-11-13 21:44:53.658,0
2014-11-13 21:51:43.786,3789,126.3,0,0,0,0,0,0,0,-1,0.7955017,-0.3093109,0.0819397,36.8758,-3.433762,-0.4690247,323.5832,326.6664,10,-0.3668595,1.125263,-0.02136068,-0.2273445,1.522972,0.3721569,-0.3766043,1.301438,-0.1242869,-0.04952917,0.01885323,-0.04091567,172.17.160.76,0.0.0.0,4,unknown,1,2014-11-13 21:51:43.050,0,2014-11-13 21:44:53.658,0
2014-11-13 21:51:43.819,3790,126.3333,0,0,0,0,0,0,0,-1,0.8304443,-0.2995758,0.1869202,36.97916,-2.503479,1.441467,325.3922,328.4754,10,-0.09573185,1.889705,0.05701482,-0.2081382,1.61106,0.3726449,-0.1400422,1.751902,0.02368365,-0.1108801,0.02409898,0.09001206,172.17.160.76,0.0.0.0,4,unknown,1,2014-11-13 21:51:43.050,0,2014-11-13 21:44:53.658,0
2014-11-13 21:51:43.852,3791,126.3667,0,0,0,0,0,0,0,-1,1.096695,-0.2566986,0.1920929,37.18589,-2.15892,2.849243,324.0879,327.1711,10,0.1314107,1.737176,-0.006204899,-0.206528,1.648809,0.3738143,-0.02916552,1.956234,0.07317258,-0.117624,0.02355516,0.0852086,172.17.160.76,0.0.0.0,4,unknown,1,2014-11-13 21:51:43.050,0,2014-11-13 21:44:53.658,0
2014-11-13 21:51:43.885,3792,126.4,0,0,0,0,0,0,0,-1,1.155624,-0.4353333,0.01618958,36.60015,-1.986633,4.357544,326.1937,329.2769,10,-0.08079445,-0.02234658,0.2729857,-0.2145034,1.720414,0.3727129,0.256427,1.326127,-0.05116257,0.366217,0.005348185,-0.04188672,172.17.160.76,0.0.0.0,4,unknown,1,2014-11-13 21:51:43.050,0,2014-11-13 21:44:53.658,0
2014-11-13 21:51:43.919,3793,126.4333,0,0,0,0,0,0,0,-1,0.7842712,-0.388916,0.07150269,36.2556,-2.400085,5.09494,327.5946,330.6778,10,-0.2586427,-1.045791,0.6588876,-0.2168442,1.73244,0.3753183,-0.01422898,0.044181,0.2891433,0.2373619,-0.06876459,-0.1335481,172.17.160.76,0.0.0.0,4,unknown,1,2014-11-13 21:51:43.050,0,2014-11-13 21:44:53.658,0
2014-11-13 21:51:43.952,3794,126.4667,0,0,0,0,0,0,0,-1,0.6652222,-0.3813171,0.1445007,36.29006,-3.674934,5.798798,324.0341,327.1173,10,-0.1416394,-0.787558,0.8116013,-0.2146659,1.707462,0.3943234,-0.2064382,-1.11853,0.8059893,-0.1303768,-0.004732367,-0.05428214,172.17.160.76,0.0.0.0,4,unknown,1,2014-11-13 21:51:43.050,0,2014-11-13 21:44:53.658,0
2014-11-13 21:51:43.986,3795,126.5,0,0,0,0,0,0,0,-1,0.8249054,-0.4365082,0.0880127,35.63541,-4.467407,5.497131,322.6515,325.7346,10,0.1156483,0.3510472,0.625567,-0.2165174,1.68411,0.426385,0.08249131,-0.0269993,0.7204292,-0.2403212,0.009804063,-0.001095309,172.17.160.76,0.0.0.0,4,unknown,1,2014-11-13 21:51:43.050,0,2014-11-13 21:44:53.658,0
2014-11-13 21:51:44.019,3796,126.5333,0,0,0,0,0,0,0,-1,0.9825592,-0.4588928,0.05865479,35.29086,-4.674141,5.430084,322.321,325.4041,10,0.1234711,0.2298431,0.4752305,-0.2276011,1.704111,0.4500249,0.2082102,0.4633723,0.5166131,0.00975994,-0.0134373,-0.0440634,172.17.160.76,0.0.0.0,4,unknown,1,2014-11-13 21:51:43.050,0,2014-11-13 21:44:53.658,0
2014-11-13 21:51:44.052,3797,126.5667,0,0,0,0,0,0,0,-1,0.90242,-0.4301147,0.1356049,35.32531,-5.328796,5.329559,324.0623,327.1455,10,0.08773891,-0.5554976,0.4584909,-0.2377048,1.708787,0.4682876,0.138405,-0.3731564,0.4731944,0.07596333,0.01472866,-0.03128309,172.17.160.76,0.0.0.0,4,unknown,1,2014-11-13 21:51:43.050,0,2014-11-13 21:44:53.658,0
2014-11-13 21:51:44.086,3798,126.6,0,0,0,0,0,0,0,-1,0.8022003,-0.4394684,0.1813202,35.42867,-5.432159,5.430145,323.3924,326.4756,10,0.1399113,-0.5564265,0.4795203,-0.2427219,1.701245,0.4773005,0.1787753,-0.5208066,0.481819,0.02172855,0.02926828,0.0200638,172.17.160.76,0.0.0.0,4,unknown,1,2014-11-13 21:51:43.050,0,2014-11-13 21:44:53.658,0
2014-11-13 21:51:44.119,3799,126.6333,0,0,0,0,0,0,0,-1,0.8023224,-0.4832764,0.1765137,35.56649,-5.501068,5.396637,320.4844,323.5676,10,0.3506195,0.0001193096,0.7438481,-0.262305,1.694356,0.5035247,0.3757758,-0.08599824,0.6648843,-0.09096568,0.02002191,0.09369586,172.17.160.76,0.0.0.0,4,unknown,1,2014-11-13 21:51:43.050,0,2014-11-13 21:44:53.658,0
2014-11-13 21:51:44.152,3800,126.6667,0,0,0,0,0,0,0,-1,0.7740021,-0.5466766,0.1715088,35.11858,-6.293541,5.32962,320.085,323.1682,10,0.3590418,0.01209128,0.7820929,-0.2736339,1.700313,0.516908,0.4171818,0.0666437,0.7600048,-0.05974765,0.01091817,0.06423271,172.17.160.76,0.0.0.0,4,unknown,1,2014-11-13 21:51:43.050,0,2014-11-13 21:44:53.658,0
2014-11-13 21:51:44.186,3801,126.7,0,0,0,0,0,0,0,-1,0.7472992,-0.6096954,0.19664,34.91185,-6.982643,5.128479,320.4345,323.5177,10,0.4960055,-0.09197653,0.9402543,-0.2930068,1.711882,0.5396963,0.497782,0.01868191,0.8868282,-0.07533886,-0.03280117,0.05087714,172.17.160.76,0.0.0.0,4,unknown,1,2014-11-13 21:51:43.050,0,2014-11-13 21:44:53.658,0
2014-11-13 21:51:44.219,3802,126.7333,0,0,0,0,0,0,0,-1,0.6778412,-0.7955017,0.1910858,34.22274,-7.80957,4.927399,320.8437,323.9268,10,1.00073,-0.3058039,1.079477,-0.3450802,1.737293,0.5848178,0.9543659,-0.1318934,1.097683,-0.152391,-0.1908572,0.08247115,172.17.160.76,0.0.0.0,4,unknown,1,2014-11-13 21:51:43.050,0,2014-11-13 21:44:53.658,0
2014-11-13 21:51:44.252,3803,126.7667,0,0,0,0,0,0,0,-1,0.6274719,-0.9121246,0.2071228,34.11938,-8.670959,4.625763,322.0695,325.1526,10,1.214765,-0.5746452,1.091059,-0.3756968,1.748986,0.6026372,1.183393,-0.366843,1.095588,-0.132958,-0.2286846,0.04506122,172.17.160.76,0.0.0.0,4,unknown,1,2014-11-13 21:51:43.050,0,2014-11-13 21:44:53.658,0
2014-11-13 21:51:44.285,3804,126.8,0,0,0,0,0,0,0,-1,0.4498749,-1.018738,0.3811035,34.01601,-9.394516,4.592194,322.2292,325.3124,10,1.810495,-1.172213,1.356359,-0.4779489,1.771528,0.6474132,1.720551,-1.017768,1.326859,-0.2522117,-0.3887725,0.1504085,172.17.160.76,0.0.0.0,4,unknown,1,2014-11-13 21:51:43.050,0,2014-11-13 21:44:53.658,0
2014-11-13 21:51:44.319,3805,126.8333,0,0,0,0,0,0,0,-1,0.5358887,-1.065247,0.4368896,34.22274,-10.29035,4.726227,322.0178,325.101,10,2.143954,-1.378365,1.375255,-0.532509,1.782244,0.6665276,2.041083,-1.205482,1.394728,-0.3185933,-0.4004773,0.2161471,172.17.160.76,0.0.0.0,4,unknown,1,2014-11-13 21:51:43.050,0,2014-11-13 21:44:53.658,0
2014-11-13 21:51:44.352,3806,126.8667,0,0,0,0,0,0,0,-1,0.6670227,-1.120117,0.469574,33.258,-11.32401,3.921844,324.4925,327.5757,10,2.763269,-1.635073,1.330186,-0.596685,1.795725,0.6838297,2.394922,-1.39918,1.3754,-0.2751487,-0.4208766,0.2432947,172.17.160.76,0.0.0.0,4,unknown,1,2014-11-13 21:51:43.050,0,2014-11-13 21:44:53.658,0
2014-11-13 21:51:44.386,3807,126.9,0,0,0,0,0,0,0,-1,0.7801514,-1.144501,0.4855652,32.49998,-12.70221,3.318512,329.2802,332.3634,10,3.547627,-3.532983,0.9319367,-0.801265,1.835812,0.7101334,3.162416,-2.566189,1.098887,0.04166574,-0.447354,0.3174871,172.17.160.76,0.0.0.0,4,walking,0,2014-11-13 21:51:44.287,0,2014-11-13 21:44:53.658,0
2014-11-13 21:51:44.419,3808,126.9333,0,0,0,0,0,0,0,-1,0.7751007,-1.199326,0.544693,32.46552,-13.0123,2.681702,332.765,335.8482,10,4.137007,-3.455715,0.6467209,-0.9471203,1.832129,0.7100705,3.936381,-3.576886,0.8380335,0.04758284,-0.4926135,0.2896407,172.17.160.76,0.0.0.0,4,walking,0,2014-11-13 21:51:44.287,0,2014-11-13 21:44:53.658,0
2014-11-13 21:51:44.452,3809,126.9667,0,0,0,0,0,0,0,-1,1.010361,-1.199463,0.5920715,32.91344,-13.80478,2.71521,338.667,341.7502,10,5.140069,-2.041117,-0.3760389,-1.117239,1.849329,0.6895173,4.621418,-2.575945,0.1762515,0.0932503,-0.5450486,0.305306,172.17.160.76,0.0.0.0,4,walking,0,2014-11-13 21:51:44.287,0,2014-11-13 21:44:53.658,0
2014-11-13 21:51:44.486,3810,127,0,0,0,0,0,0,0,-1,1.297455,-1.27832,0.4161987,33.22354,-13.49468,2.882782,350.9756,354.0587,10,5.654754,-2.641256,-1.163439,-1.363291,1.917059,0.609054,5.71974,-2.002848,-0.8343129,0.3573816,-0.6725371,0.2999025,172.17.160.76,0.0.0.0,4,walking,0,2014-11-13 21:51:44.287,0,2014-11-13 21:44:53.658,0
2014-11-13 21:51:44.519,3811,127.0333,0,0,0,0,0,0,0,-1,1.084366,-1.133789,0.5857697,33.74037,-13.25349,3.452606,0.878876,3.962067,10,5.915071,-2.697782,-2.304743,-1.64785,1.928199,0.4416289,5.857038,-2.85032,-2.036642,0.3112444,-0.6909498,0.3035962,172.17.160.76,0.0.0.0,4,walking,0,2014-11-13 21:51:44.287,0,2014-11-13 21:44:53.658,0
2014-11-13 21:51:44.552,3812,127.0667,0,0,0,0,0,0,0,-1,1.155762,-1.203568,0.3589478,34.9463,-11.22063,3.687225,22.97606,26.05926,10,5.947947,-2.212979,-2.830931,-1.752407,1.917779,0.3559913,6.04971,-2.348612,-2.561279,0.2290325,-0.8208071,0.2012179,172.17.160.76,0.0.0.0,4,walking,0,2014-11-13 21:51:44.287,0,2014-11-13 21:44:53.658,0
2014-11-13 21:51:44.586,3813,127.1,0,0,0,0,0,0,0,-1,1.160919,-1.165161,0.3368225,35.35976,-9.980232,3.620178,36.63534,39.71853,10,5.844851,-2.022618,-3.239275,-1.802595,1.91227,0.3097248,6.014385,-2.146492,-2.814838,0.2543827,-0.9044319,0.08225764,172.17.160.76,0.0.0.0,4,walking,0,2014-11-13 21:51:44.287,0,2014-11-13 21:44:53.658,0
2014-11-13 21:51:44.619,3814,127.1333,0,0,0,0,0,0,0,-1,1.020874,-0.8348846,-0.07254028,37.08253,-5.914513,2.815735,65.63976,68.72295,10,5.047745,-1.670617,-3.956244,-2.027815,1.859563,0.05930046,5.341736,-1.75928,-3.786844,0.1399518,-1.06752,-0.1347026,172.17.160.76,0.0.0.0,4,walking,0,2014-11-13 21:51:44.287,0,2014-11-13 21:44:53.658,0
2014-11-13 21:51:44.652,3815,127.1667,0,0,0,0,0,0,0,-1,1.033325,-0.6559143,-0.3499756,37.90945,-1.504242,1.206848,95.46329,98.54649,10,4.190247,-0.7366484,-4.295219,-2.174681,1.802166,-0.1478096,4.501525,-0.8546419,-4.209896,0.06074354,-0.9117983,-0.3857159,172.17.160.76,0.0.0.0,4,walking,0,2014-11-13 21:51:44.287,0,2014-11-13 21:44:53.658,0
2014-11-13 21:51:44.685,3816,127.2,0,0,0,0,0,0,0,-1,0.9717712,-0.2675934,-0.5960388,38.59856,4.008598,-1.072357,119.943,123.0262,10,2.971467,-0.3877776,-4.466086,-2.297712,1.750389,-0.3510614,3.536769,-0.411902,-4.457646,0.1044299,-0.7733228,-0.6773319,172.17.160.76,0.0.0.0,4,walking,0,2014-11-13 21:51:44.287,0,2014-11-13 21:44:53.658,0
2014-11-13 21:51:44.719,3817,127.2333,0,0,0,0,0,0,0,-1,0.8483734,0.02705383,-0.6787872,38.46074,6.765015,-1.876801,131.0702,134.1534,10,2.360421,-0.3018251,-4.378427,-2.375814,1.708279,-0.4976099,2.865104,-0.2709281,-4.404499,0.0326876,-0.558244,-0.7738261,172.17.160.76,0.0.0.0,4,walking,0,2014-11-13 21:51:44.287,0,2014-11-13 21:44:53.658,0
2014-11-13 21:51:44.752,3818,127.2667,0,0,0,0,0,0,0,-1,0.6115723,0.3600922,-0.5217438,35.97996,15.37884,-4.088959,158.5115,161.5947,10,1.7034,-0.1175711,-4.221081,-2.489112,1.633287,-0.7249334,1.896804,-0.100389,-4.253491,-0.112561,-0.3693997,-0.6009153,172.17.160.76,0.0.0.0,4,walking,0,2014-11-13 21:51:44.287,0,2014-11-13 21:44:53.658,0
2014-11-13 21:51:44.786,3819,127.3,0,0,0,0,0,0,0,-1,0.5480652,0.4592133,-0.4794312,34.15383,18.03189,-4.390594,166.2543,169.3375,10,1.435403,-0.2398922,-4.113512,-2.510459,1.618188,-0.768029,1.769835,-0.05108653,-4.204989,-0.1069015,-0.3346267,-0.5558191,172.17.160.76,0.0.0.0,4,walking,0,2014-11-13 21:51:44.287,0,2014-11-13 21:44:53.658,0
2014-11-13 21:51:44.819,3820,127.3333,0,0,0,0,0,0,0,-1,0.3687744,0.6423035,-0.457428,32.43107,20.23703,-5.329132,172.886,175.9692,10,1.25346,-0.5691122,-3.960649,-2.553468,1.585027,-0.8517057,1.501837,-0.1734079,-4.09742,-0.1105688,-0.2931918,-0.4888045,172.17.160.76,0.0.0.0,4,walking,0,2014-11-13 21:51:44.287,0,2014-11-13 21:44:53.658,0
2014-11-13 21:51:44.852,3821,127.3667,0,0,0,0,0,0,0,-1,0.2956543,0.7385254,-0.3912048,28.74436,23.92374,-6.301117,185.632,188.7152,10,0.7164053,-0.2777469,-3.964535,-2.684275,1.448365,-1.082185,0.6774589,-0.3489404,-4.035816,-0.01990251,0.05880209,-0.4657913,172.17.160.76,0.0.0.0,4,walking,0,2014-11-13 21:51:44.287,0,2014-11-13 21:44:53.658,0
2014-11-13 21:51:44.886,3822,127.4,0,0,0,0,0,0,0,-1,0.2350006,0.8404236,-0.3886261,26.64259,25.74986,-6.803864,190.6344,193.7176,10,0.6695395,-0.4784997,-3.675632,-2.747529,1.386585,-1.156625,0.8066823,-0.2521648,-3.73433,-0.09996843,-0.1769247,-0.3174909,172.17.160.76,0.0.0.0,4,walking,0,2014-11-13 21:51:44.287,0,2014-11-13 21:44:53.658,0
2014-11-13 21:51:44.919,3823,127.4333,0,0,0,0,0,0,0,-1,0.0514679,0.9334259,-0.309021,19.0969,29.50549,-8.848358,202.8499,205.933,10,0.6374537,-1.212797,-3.827986,-3.045459,1.065052,-1.327351,0.6794522,-1.130536,-3.835076,-0.01888596,0.02422247,-0.2351205,172.17.160.76,0.0.0.0,4,walking,0,2014-11-13 21:51:44.287,0,2014-11-13 21:44:53.658,0
2014-11-13 21:51:44.952,3824,127.4667,0,0,0,0,0,0,0,-1,-0.009902954,0.8694763,-0.3281403,16.06484,30.81479,-9.585785,206.0329,209.1161,10,0.6045495,-1.242949,-3.883218,2.971742,0.7822191,-1.379838,0.7038897,-1.146312,-3.811898,-0.08231366,-0.04839686,-0.1743861,172.17.160.76,0.0.0.0,4,walking,0,2014-11-13 21:51:44.287,0,2014-11-13 21:44:53.658,0
2014-11-13 21:51:44.986,3825,127.5,0,0,0,0,0,0,0,-1,-0.02812195,0.9234314,-0.3482361,12.96387,31.09044,-10.39017,208.8014,211.8846,10,0.4521896,-1.314419,-3.929729,2.78188,0.5837772,-1.398958,0.6709854,-1.176464,-3.867131,-0.08443683,-0.09580678,-0.1708475,172.17.160.76,0.0.0.0,4,walking,0,2014-11-13 21:51:44.287,0,2014-11-13 21:44:53.658,0
2014-11-13 21:51:45.019,3826,127.5333,0,0,0,0,0,0,0,-1,-0.2205353,0.7356873,-0.2764282,7.175392,31.91736,-11.66379,214.8464,217.9296,10,0.7099527,-0.6209394,-4.386664,1.651708,-0.5840292,-1.364544,0.6759246,-0.6868464,-4.319947,0.04909336,-0.05479403,-0.0652357,172.17.160.76,0.0.0.0,4,walking,0,2014-11-13 21:51:44.287,0,2014-11-13 21:44:53.658,0
2014-11-13 21:51:45.052,3827,127.5667,0,0,0,0,0,0,0,-1,-0.2290649,0.8095093,-0.1686707,0.6978073,31.50389,-12.33414,220.5974,223.6806,10,0.7474087,-0.66816,-4.446496,1.275567,-0.9705733,-1.219211,0.636598,-0.6402805,-4.347153,0.05654535,-0.1707004,-0.1229404,172.17.160.76,0.0.0.0,4,walking,0,2014-11-13 21:51:44.287,0,2014-11-13 21:44:53.658,0
2014-11-13 21:51:45.085,3828,127.6,0,0,0,0,0,0,0,-1,-0.4851227,0.6795349,-0.111557,-5.435223,30.2635,-12.66934,229.9487,233.0319,10,1.114313,-0.6357861,-4.498651,1.157445,-1.097415,-1.093061,0.9120334,-0.5626168,-4.458169,0.1125784,-0.1175917,0.06411535,172.17.160.76,0.0.0.0,4,walking,0,2014-11-13 21:51:44.287,0,2014-11-13 21:44:53.658,0
2014-11-13 21:51:45.119,3829,127.6333,0,0,0,0,0,0,0,-1,-0.5404663,0.6358795,-0.3343353,-8.605103,29.29876,-13.33975,233.1961,236.2793,10,1.269056,-0.5287483,-4.526265,1.104817,-1.159593,-0.9569111,1.178626,-0.5576211,-4.483556,-0.03576838,-0.1639127,0.009687704,172.17.160.76,0.0.0.0,4,walking,0,2014-11-13 21:51:44.287,0,2014-11-13 21:44:53.658,0
2014-11-13 21:51:45.152,3830,127.6667,0,0,0,0,0,0,0,-1,-0.5449219,0.5628967,-0.334671,-14.4625,25.37086,-14.41226,238.9345,242.0177,10,1.467323,-0.4840823,-4.508728,1.085036,-1.185385,-0.8641836,1.33549,-0.462265,-4.510178,0.03127566,-0.08272427,-0.06942348,172.17.160.76,0.0.0.0,4,walking,0,2014-11-13 21:51:44.287,0,2014-11-13 21:44:53.658,0
2014-11-13 21:51:45.186,3831,127.7,0,0,0,0,0,0,0,-1,-0.8698883,0.2029419,-0.4607086,-17.25337,22.99346,-14.98209,241.2364,244.3195,10,2.082766,-1.103727,-4.069534,1.088214,-1.213284,-0.628272,2.017425,-0.9072777,-4.158418,0.01026901,-0.2817936,-0.07308004,172.17.160.76,0.0.0.0,4,walking,0,2014-11-13 21:51:44.287,0,2014-11-13 21:44:53.658,0
2014-11-13 21:51:45.219,3832,127.7333,0,0,0,0,0,0,0,-1,-0.925293,0.1276093,-0.5176239,-22.0771,18.51428,-16.3898,246.7268,249.81,10,2.415174,-1.446715,-3.737156,1.103976,-1.226225,-0.5373237,2.264984,-1.204466,-3.958168,-0.02727626,-0.2769906,-0.1223595,172.17.160.76,0.0.0.0,4,walking,0,2014-11-13 21:51:44.287,0,2014-11-13 21:44:53.658,0
2014-11-13 21:51:45.252,3833,127.7667,0,0,0,0,0,0,0,-1,-1.596252,-0.471283,-0.8119507,-25.83272,13.58719,-16.89255,251.34,254.4232,10,3.13286,-2.236485,-1.894901,1.199757,-1.277632,-0.2890942,3.053883,-1.657308,-2.664258,-0.07371054,-0.3378796,-0.2981738,172.17.160.76,0.0.0.0,4,walking,0,2014-11-13 21:51:44.287,0,2014-11-13 21:44:53.658,0
2014-11-13 21:51:45.286,3834,127.8,0,0,0,0,0,0,0,-1,-1.408295,0.09803772,-0.5755157,-27.55548,11.24423,-16.35629,253.4376,256.5208,10,4.33919,-3.284575,-1.308385,1.255403,-1.310947,-0.2371922,3.552027,-2.940583,-1.322677,-0.6568823,-0.7062573,-0.5622091,172.17.160.76,0.0.0.0,3,walking,0,2014-11-13 21:51:44.287,0,2014-11-13 21:44:53.658,0
2014-11-13 21:51:45.318,3835,127.8333,0,0,0,0,0,0,0,-1,-1.603577,-0.284668,-1.140503,-30.55308,4.594376,-12.63577,249.3305,252.4137,10,5.070039,-2.985143,-0.7257295,1.374866,-1.383581,-0.1722535,4.777091,-3.340279,-1.127687,-0.5445567,-0.1399393,-0.648632,172.17.160.76,0.0.0.0,3,walking,0,2014-11-13 21:51:44.287,0,2014-11-13 21:44:53.658,0
2014-11-13 21:51:45.352,3836,127.8667,0,0,0,0,0,0,0,-1,-1.582352,-0.4925232,-1.155685,-31.58673,2.871613,-10.89285,245.6097,248.6929,10,5.543681,-2.883932,1.316383,1.576317,-1.474792,-0.1230232,5.258523,-2.831096,0.2021666,-0.654645,-0.5845814,-1.010779,172.17.160.76,0.0.0.0,3,walking,0,2014-11-13 21:51:44.287,0,2014-11-13 21:44:53.658,0
2014-11-13 21:51:45.385,3837,127.9,0,0,0,0,0,0,0,-1,-1.485855,-0.6280975,-1.362869,-32.3792,2.148048,-9.384613,242.5269,245.6101,10,5.834823,-3.184555,1.910262,1.686849,-1.51679,-0.1330921,5.61012,-2.817444,1.332462,-0.5926405,-0.6252227,-1.102183,172.17.160.76,0.0.0.0,3,walking,0,2014-11-13 21:51:44.287,0,2014-11-13 21:44:53.658,0
2014-11-13 21:51:45.424,3838,127.9333,0,0,0,0,0,0,0,-1,-1.272308,-1.044083,-1.125885,-33.10276,4.594376,-3.116791,220.6785,223.7617,10,4.92332,-3.806272,6.355888,1.987168,-1.637409,-0.2817097,5.70448,-3.953689,4.395931,-0.2025901,-1.155211,-1.525426,172.17.160.76,0.0.0.0,3,walking,0,2014-11-13 21:51:44.287,0,2014-11-13 21:44:53.658,0
2014-11-13 21:51:45.458,3839,127.9667,0,0,0,0,0,0,0,-1,-1.283829,-1.16745,-0.9838562,-32.06911,7.695343,-1.172729,211.4542,214.5374,10,4.146263,-2.505718,8.422799,2.087469,-1.682092,-0.4028954,4.989758,-3.739784,6.371967,-0.2934494,-1.338296,-1.605332,172.17.160.76,0.0.0.0,3,walking,0,2014-11-13 21:51:44.287,0,2014-11-13 21:44:53.658,0
2014-11-13 21:51:45.489,3840,128,0,0,0,0,0,0,0,-1,0.2300873,-1.996078,-0.8440704,-26.59072,16.48142,2.145538,182.5259,185.6091,10,-0.7430978,1.445809,13.46468,2.230696,-1.700654,-1.012688,1.267478,0.1442125,12.53854,-0.1455462,-2.347953,-1.120808,172.17.160.76,0.0.0.0,3,walking,0,2014-11-13 21:51:44.287,0,2014-11-13 21:44:53.658,0
2014-11-13 21:51:45.519,3841,128.0333,0,0,0,0,0,0,0,-1,1.777374,-2.526642,-0.3843994,-22.04263,21.37406,2.815887,151.6923,154.7755,10,-2.459468,1.427524,13.46889,1.886374,-1.993447,-1.399178,-1.566239,1.570367,13.65848,0.8296235,-3.150425,-0.8882408,172.17.160.76,0.0.0.0,3,walking,0,2014-11-13 21:51:44.287,0,2014-11-13 21:44:53.658,0
2014-11-13 21:51:45.552,3842,128.0667,0,0,0,0,0,0,0,-1,1.777374,-2.526642,-0.3843994,-7.915993,29.16095,4.089569,93.70705,96.79025,10,-3.001685,1.095145,12.89703,1.886374,-1.993447,-1.399178,-1.566239,1.570367,13.65848,0.8296235,-3.150425,-0.8882408,172.17.160.76,0.0.0.0,3,walking,0,2014-11-13 21:51:44.287,0,2014-11-13 21:44:53.658,0
2014-11-13 21:51:45.613,3843,128.1,0,0,0,0,0,0,0,-1,2.814026,1.536942,0.3114929,13.17061,30.95262,9.117218,65.48055,68.56374,10,-3.465979,-4.192748,5.022325,-0.4104988,1.980047,-0.8734201,-2.918724,-2.49432,5.052571,3.05966,-0.284108,0.6584523,172.17.160.76,0.0.0.0,3,walking,0,2014-11-13 21:51:44.287,0,2014-11-13 21:44:53.658,0
2014-11-13 21:51:45.639,3844,128.1333,0,0,0,0,0,0,0,-1,-3.629272,-0.9080658,0.9169617,23.19708,26.02553,11.22879,140.3015,143.3847,10,0.8774509,-1.270052,13.43051,-0.3575335,1.771952,-0.5689677,-2.517311,-7.974853,10.18101,-0.8576971,1.058222,0.1941476,172.17.160.76,0.0.0.0,3,walking,0,2014-11-13 21:51:44.287,0,2014-11-13 21:44:53.658,0
2014-11-13 21:51:45.674,3845,128.1667,0,0,0,0,0,0,0,-1,-2.886261,-2.556168,0.3960114,26.88379,21.99426,12.67004,139.4003,142.4835,10,-0.03708718,14.47696,6.437836,-0.4158494,1.698315,-0.1981416,2.119988,5.904832,11.24833,-6.894776,-2.224329,0.7476449,172.17.160.76,0.0.0.0,3,walking,0,2014-11-13 21:51:44.287,0,2014-11-13 21:44:53.658,0
2014-11-13 21:51:45.703,3846,128.2,0,0,0,0,0,0,0,-1,-1.232025,-3.370865,0.2646484,29.64021,17.584,14.68112,127.2095,130.2927,10,-0.03708718,14.47696,6.437836,-0.4158494,1.698315,-0.1981416,2.119988,5.904832,11.24833,-6.894776,-2.224329,0.7476449,172.17.160.76,0.0.0.0,3,walking,0,2014-11-13 21:51:44.287,0,2014-11-13 21:44:53.658,0
2014-11-13 21:51:45.742,3847,128.2333,0,0,0,0,0,0,0,-1,0.4263611,-2.103653,1.637619,28.08973,3.078354,25.57437,313.5036,316.5868,10,-10.76334,8.012043,-1.334583,-0.2381378,2.508275,0.3303351,-10.6088,7.655401,-0.6332787,0.1969502,-2.309566,0.5244542,172.17.160.76,0.0.0.0,3,walking,0,2014-11-13 21:51:44.287,0,2014-11-13 21:44:53.658,0
2014-11-13 21:51:45.780,3848,128.2667,0,0,0,0,0,0,0,-1,1.112762,-1.942963,1.459549,24.47192,-1.366364,28.08826,349.9866,353.0698,10,-10.18532,7.768484,-2.176601,-0.1623315,2.560928,0.4119597,-10.69702,8.078498,-1.318561,-0.2938529,-2.071533,0.948848,172.17.160.76,0.0.0.0,3,walking,0,2014-11-13 21:51:44.287,0,2014-11-13 21:44:53.658,0
2014-11-13 21:51:45.813,3849,128.3,0,0,0,0,0,0,0,-1,1.664062,-2.450119,1.664703,16.58168,-12.97778,26.31183,345.6729,348.7561,10,-8.329281,5.290692,-4.58918,0.001239864,2.635603,0.5558708,-9.197058,6.932722,-3.387363,0.7010611,-1.415279,0.7165467,172.17.160.76,0.0.0.0,3,walking,0,2014-11-13 21:51:44.287,0,2014-11-13 21:44:53.658,0
2014-11-13 21:51:45.853,3850,128.3333,0,0,0,0,0,0,0,-1,0.5693512,-1.569473,1.83844,16.4094,-15.63083,23.99908,247.9341,251.0173,10,-6.88183,-0.1739385,-3.777375,0.6383513,2.347899,0.7904889,-7.376816,-0.261785,-3.968114,0.4263903,-1.209896,1.522794,172.17.160.76,0.0.0.0,3,walking,0,2014-11-13 21:51:44.287,0,2014-11-13 21:44:53.658,0
2014-11-13 21:51:45.871,3851,128.3667,0,0,0,0,0,0,0,-1,0.5716858,-1.462204,1.686905,16.96069,-17.69815,21.78693,228.1595,231.2426,10,-6.88183,-0.1739385,-3.777375,0.6383513,2.347899,0.7904889,-7.376816,-0.261785,-3.968114,0.4263903,-1.209896,1.522794,172.17.160.76,0.0.0.0,3,walking,0,2014-11-13 21:51:44.287,0,2014-11-13 21:44:53.658,0
2014-11-13 21:51:45.901,3852,128.4,0,0,0,0,0,0,0,-1,1.252991,-1.539093,0.6472015,18.26999,-19.28309,19.50772,216.738,219.8212,10,-4.413641,0.1946845,-3.069237,1.127748,2.013171,0.807043,-4.591484,0.7004815,-3.283513,0.5134609,-0.7902365,0.6150823,172.17.160.76,0.0.0.0,3,walking,0,2014-11-13 21:51:44.287,0,2014-11-13 21:44:53.658,0
2014-11-13 21:51:45.921,3853,128.4333,0,0,0,0,0,0,0,-1,1.041565,-1.723175,0.5784607,19.40701,-20.14447,16.99393,217.8076,220.8908,10,-4.038384,-0.7466092,-2.604301,1.2037,1.962466,0.7964545,-4.347324,0.261137,-3.053215,0.635475,-0.7929158,0.4855013,172.17.160.76,0.0.0.0,3,walking,0,2014-11-13 21:51:44.287,0,2014-11-13 21:44:53.658,0
2014-11-13 21:51:45.952,3854,128.4667,0,0,0,0,0,0,0,-1,0.9858093,-1.715729,0.5373993,20.50957,-20.55793,14.64767,216.4048,219.4879,10,-3.837737,-0.8787521,-2.360546,1.339507,1.859096,0.7716956,-3.972066,-0.6801569,-2.588279,0.4557039,-0.9514827,0.395064,172.17.160.76,0.0.0.0,3,walking,0,2014-11-13 21:51:44.287,0,2014-11-13 21:44:53.658,0
2014-11-13 21:51:45.986,3855,128.5,0,0,0,0,0,0,0,-1,0.9955597,-1.344147,0.03117371,22.57689,-20.76466,10.5585,213.5411,216.6243,10,-2.395461,0.6463668,-1.941815,1.593571,1.673018,0.6995245,-2.938001,0.4196288,-1.953717,0.2074737,-0.7685758,0.09899957,172.17.160.76,0.0.0.0,3,walking,0,2014-11-13 21:51:44.287,0,2014-11-13 21:44:53.658,0
2014-11-13 21:51:46.019,3856,128.5333,0,0,0,0,0,0,0,-1,1.051544,-1.43779,-0.05804443,24.12737,-20.17892,7.307343,211.3175,214.4007,10,-1.650629,0.6665589,-1.471076,1.691712,1.632094,0.6480145,-2.01816,0.8305314,-1.795775,0.2091269,-0.7936122,-0.04993994,172.17.160.76,0.0.0.0,3,walking,0,2014-11-13 21:51:44.287,0,2014-11-13 21:44:53.658,0
2014-11-13 21:51:46.053,3857,128.5667,0,0,0,0,0,0,0,-1,1.077026,-1.160919,0.08743286,25.22994,-20.17893,6.033661,205.6402,208.7234,10,-1.280627,-0.4425918,-0.7204045,1.772811,1.610094,0.5958868,-1.366409,0.2538345,-1.012572,0.281722,-0.7780362,-0.01388567,172.17.160.76,0.0.0.0,3,walking,0,2014-11-13 21:51:44.287,0,2014-11-13 21:44:53.658,0
2014-11-13 21:51:46.086,3858,128.6,0,0,0,0,0,0,0,-1,0.9353638,-0.9013824,0.1062622,26.12577,-20.04111,5.229279,202.8831,205.9663,10,-1.065461,-1.12306,-0.4817142,1.817838,1.576228,0.5746164,-1.115818,-0.7471747,-0.5835737,0.1927161,-0.5339255,0.07486223,172.17.160.76,0.0.0.0,3,walking,0,2014-11-13 21:51:44.287,0,2014-11-13 21:44:53.658,0
2014-11-13 21:51:46.119,3859,128.6333,0,0,0,0,0,0,0,-1,0.719101,-0.6804504,0.09573364,27.09052,-19.69656,4.223694,203.4146,206.4978,10,-0.5636597,-1.609576,-0.1496654,1.850013,1.523218,0.5620037,-0.76964,-1.408263,-0.3028127,0.0901323,-0.3684996,0.1465075,172.17.160.76,0.0.0.0,3,walking,0,2014-11-13 21:51:44.287,0,2014-11-13 21:44:53.658,0
2014-11-13 21:51:46.152,3860,128.6667,0,0,0,0,0,0,0,-1,0.6836243,-0.5189667,0.1153412,27.57289,-19.42092,3.285217,204.7647,207.8479,10,-0.2449227,-1.494718,-0.1162867,1.868293,1.467788,0.5558839,-0.3375313,-1.53445,-0.1002293,-0.1258308,-0.1527561,0.1830779,172.17.160.76,0.0.0.0,3,walking,0,2014-11-13 21:51:44.287,0,2014-11-13 21:44:53.658,0
2014-11-13 21:51:46.186,3861,128.7,0,0,0,0,0,0,0,-1,0.6856079,-0.4838562,0.1369781,27.60735,-19.31755,2.447296,205.4366,208.5198,10,0.199573,-0.8922458,0.05293565,1.870399,1.428077,0.5534144,0.1146078,-1.044217,-0.01972982,-0.1544328,0.02333674,0.2532825,172.17.160.76,0.0.0.0,3,walking,0,2014-11-13 21:51:44.287,0,2014-11-13 21:44:53.658,0
2014-11-13 21:51:46.219,3862,128.7333,0,0,0,0,0,0,0,-1,0.5096588,-0.3847046,0.007400513,27.60735,-19.31756,0.9054871,207.9123,210.9955,10,0.7265338,-0.1826998,0.4771687,1.850849,1.414392,0.5640603,0.6928125,-0.2965558,0.3896512,-0.2259656,0.1063077,0.2493286,172.17.160.76,0.0.0.0,3,walking,0,2014-11-13 21:51:44.287,0,2014-11-13 21:44:53.658,0
2014-11-13 21:51:46.252,3863,128.7667,0,0,0,0,0,0,0,-1,0.7669983,-0.06326294,-0.08694458,27.46953,-19.45538,1.173615,208.473,211.5562,10,1.065987,0.7283794,0.5603064,1.81488,1.44051,0.5920373,0.8813015,0.5906694,0.6823404,-0.291248,0.180825,0.04233161,172.17.160.76,0.0.0.0,3,walking,0,2014-11-13 21:51:44.287,0,2014-11-13 21:44:53.658,0
2014-11-13 21:51:46.285,3864,128.8,0,0,0,0,0,0,0,-1,0.8460693,-0.6649933,-0.06835938,26.88379,-19.28309,2.279663,210.6264,213.7096,10,2.219896,1.135531,-0.1891537,1.776335,1.485697,0.6115867,1.502408,0.8138734,0.1653097,0.2401941,0.74502,-0.005803494,172.17.160.76,0.0.0.0,3,walking,0,2014-11-13 21:51:44.287,0,2014-11-13 21:44:53.658,0
2014-11-13 21:51:46.319,3865,128.8333,0,0,0,0,0,0,0,-1,0.604538,-0.8089905,-0.03791809,26.3325,-19.14526,4.558868,212.1723,215.2555,10,2.145237,0.4394189,1.058947,1.697289,1.564066,0.6123914,2.460882,1.234768,0.2414252,0.02781211,-0.09016741,-0.06285184,172.17.160.76,0.0.0.0,3,walking,0,2014-11-13 21:51:44.287,0,2014-11-13 21:44:53.658,0
2014-11-13 21:51:46.352,3866,128.8667,0,0,0,0,0,0,0,-1,0.6690369,-0.7267151,-0.09564209,25.9535,-19.0419,5.798981,213.2663,216.3495,10,1.905201,0.05245629,1.018534,1.639053,1.614369,0.628108,2.21155,0.5058659,1.074968,-0.2494738,-0.3249217,-0.05694342,172.17.160.76,0.0.0.0,3,walking,0,2014-11-13 21:51:44.287,0,2014-11-13 21:44:53.658,0
2014-11-13 21:51:46.386,3867,128.9,0,0,0,0,0,0,0,-1,0.8575745,-0.5773926,-0.1020355,25.85013,-19.21417,6.502838,217.3064,220.3896,10,1.956371,-0.4340889,0.894771,1.499017,1.683265,0.6765565,1.852831,-0.467826,1.001126,0.03506842,0.01429528,-0.240877,172.17.160.76,0.0.0.0,3,walking,0,2014-11-13 21:51:44.287,0,2014-11-13 21:44:53.658,0
2014-11-13 21:51:46.419,3868,128.9333,0,0,0,0,0,0,0,-1,0.7755127,-0.5671692,-0.08087158,25.60894,-19.52426,7.139679,216.1673,219.2504,10,2.21578,-0.4595929,0.7694719,1.472285,1.696132,0.6834996,2.022682,-0.3676428,0.9107915,0.07715026,0.04627474,-0.2099183,172.17.160.76,0.0.0.0,3,walking,0,2014-11-13 21:51:44.287,0,2014-11-13 21:44:53.658,0
2014-11-13 21:51:46.452,3869,128.9667,0,0,0,0,0,0,0,-1,0.7764282,-0.6767578,-0.1076508,25.16103,-18.93853,9.385315,222.5463,225.6295,10,2.631281,-1.334242,0.6327479,1.311485,1.770095,0.702758,2.642133,-1.021788,0.7192677,0.02924819,0.02208761,-0.2194319,172.17.160.76,0.0.0.0,3,walking,0,2014-11-13 21:51:44.287,0,2014-11-13 21:44:53.658,0
2014-11-13 21:51:46.486,3870,129,0,0,0,0,0,0,0,-1,0.7905426,-0.5827179,-0.141571,25.29885,-18.59398,9.988647,225.8542,228.9373,10,2.616096,-1.837675,0.2374054,1.203225,1.797586,0.7020658,2.684153,-1.653162,0.4111402,0.03636057,-0.02108902,-0.3105308,172.17.160.76,0.0.0.0,3,walking,0,2014-11-13 21:51:44.287,0,2014-11-13 21:44:53.658,0
2014-11-13 21:51:46.519,3871,129.0333,0,0,0,0,0,0,0,-1,0.7556458,-0.5473175,-0.08610535,25.98795,-17.69815,10.72604,233.7568,236.84,10,3.21262,-2.099221,-0.02839169,1.061627,1.815238,0.6801462,2.958275,-1.875631,-0.04749519,0.02425713,0.09108016,-0.2950341,172.17.160.76,0.0.0.0,3,walking,0,2014-11-13 21:51:44.287,0,2014-11-13 21:44:53.658,0
