time,timestamp,recordtime,lat,long,alt,speed,course,verticalAccuracy,horizontalAccuracy,locTimeStamp,accelerationX,accelerationY,accelerationZ,HeadingX,HeadingY,HeadingZ,TrueHeading,MagneticHeading,HeadingAccuracy,RotationX,RotationY,RotationZ,motionYaw,motionRoll,motionPitch,motionRotationRateX,motionRotationRateY,motionRotationRateZ,motionUserAccelerationX,motionUserAccelerationY,motionUserAccelerationZ,en0,pdp_ip0,DeviceOrientation,Activity,Activity Confidence,Activity Start,Steps,Last Step Date,State
2014-11-15 18:18:57.140,48846,1628.2,40.10482,-88.22184,233.4931,1.06,168.0469,12,10,1416097137,-0.279007,-0.6112518,0.7582397,-6.196789,-33.92316,-9.401794,193.4389,196.5212,15,-0.05313139,-0.08663529,-0.07880693,0.4908864,-2.802572,0.6578999,-0.006703924,-0.0160016,-0.06873282,-0.02574454,0.0161653,0.01882116,172.17.160.76,10.64.29.0,1,unknown,2,2014-11-15 18:18:55.815,134,2014-11-15 18:16:20.024,3
2014-11-15 18:18:57.196,48847,1628.233,40.10482,-88.22184,233.4931,1.06,168.0469,12,10,1416097137,-0.2657928,-0.6017609,0.7480774,-5.681324,-33.61345,-9.234619,193.388,196.4703,15,-0.088377,-0.06303276,-0.05095213,0.4921334,-2.801568,0.6599372,-0.03986382,0.00432363,-0.03986835,-0.009664214,-0.001404175,0.008024213,172.17.160.76,10.64.29.0,1,unknown,2,2014-11-15 18:18:55.815,134,2014-11-15 18:16:20.024,3
2014-11-15 18:18:57.230,48848,1628.267,40.10482,-88.22184,233.4931,1.06,168.0469,12,10,1416097137,-0.2657928,-0.6017609,0.7480774,-5.681324,-33.61345,-9.234619,193.388,196.4703,15,-0.07240762,-0.07043901,-0.04574352,0.4921334,-2.801568,0.6599372,-0.03986382,0.00432363,-0.03986835,-0.009664214,-0.001404175,0.008024213,172.17.160.76,10.64.29.0,1,unknown,2,2014-11-15 18:18:55.815,134,2014-11-15 18:16:20.024,3
2014-11-15 18:18:57.238,48849,1628.3,40.10482,-88.22184,233.4931,1.06,168.0469,12,10,1416097137,-0.2584076,-0.6072693,0.7451477,-5.715691,-33.71669,-9.334961,193.3707,196.453,15,-0.07240762,-0.07043901,-0.04574352,0.4921334,-2.801568,0.6599372,-0.03986382,0.00432363,-0.03986835,-0.009664214,-0.001404175,0.008024213,172.17.160.76,10.64.29.0,1,unknown,2,2014-11-15 18:18:55.815,134,2014-11-15 18:16:20.024,3
2014-11-15 18:18:57.270,48850,1628.333,40.10482,-88.22184,233.4931,1.06,168.0469,12,10,1416097137,-0.258255,-0.6153412,0.7288055,-5.784416,-33.57904,-9.268066,193.3572,196.4395,15,-0.06288575,-0.07771423,-0.02352636,0.4933724,-2.802439,0.658964,0.005919805,-0.007252542,-0.02205284,0.004625259,0.005028776,-0.000442531,172.17.160.76,10.64.29.0,1,unknown,2,2014-11-15 18:18:55.815,134,2014-11-15 18:16:20.024,3
2014-11-15 18:18:57.304,48851,1628.367,40.10482,-88.22184,233.4931,1.06,168.0469,12,10,1416097137,-0.2626495,-0.6108551,0.7431793,-5.784416,-33.71669,-9.067383,193.3348,196.4171,15,-0.08212043,-0.09143058,-0.01185027,0.4939213,-2.80323,0.6603271,-0.005888861,-0.01983138,0.0002135072,0.003910777,-0.001965986,-0.0162045,172.17.160.76,10.64.29.0,1,unknown,2,2014-11-15 18:18:55.815,134,2014-11-15 18:16:20.024,3
2014-11-15 18:18:57.338,48852,1628.4,40.10482,-88.22184,233.4931,1.06,168.0469,12,10,1416097137,-0.2544861,-0.601532,0.7544403,-6.093693,-33.68227,-8.632629,193.3237,196.406,15,-0.1033123,-0.05980554,-0.04663328,0.4937033,-2.80373,0.6618443,-0.04312871,-0.001900899,-0.01972154,0.001886537,0.006311648,-0.001479646,172.17.160.76,10.64.29.0,1,unknown,2,2014-11-15 18:18:55.815,134,2014-11-15 18:16:20.024,3
2014-11-15 18:18:57.375,48853,1628.433,40.10482,-88.22184,233.4931,1.06,168.0469,12,10,1416097137,-0.2554932,-0.611557,0.7450104,-5.887516,-33.4758,-9.033997,193.3082,196.3905,15,-0.05740843,-0.06105084,-0.06804137,0.4962342,-2.805549,0.6613582,0.006031623,0.01269119,-0.05379585,0.005589952,0.01537337,0.01285503,172.17.160.76,10.64.29.0,1,unknown,2,2014-11-15 18:18:55.815,134,2014-11-15 18:16:20.024,3
2014-11-15 18:18:57.404,48854,1628.467,40.10482,-88.22184,233.4931,1.06,168.0469,12,10,1416097137,-0.2714386,-0.6135864,0.7544861,-5.578236,-33.57904,-9.335022,193.2946,196.377,15,-0.08299076,-0.06530444,-0.07009093,0.4983976,-2.80703,0.6617718,-0.01423026,-0.001122097,-0.05485488,0.002602311,-0.003251759,-0.004165822,172.17.160.76,10.64.29.0,1,unknown,2,2014-11-15 18:18:55.815,134,2014-11-15 18:16:20.024,3
2014-11-15 18:18:57.438,48855,1628.5,40.10482,-88.22184,233.4931,1.06,168.0469,12,10,1416097137,-0.2762146,-0.5987854,0.7654114,-5.234592,-33.51022,-9.602539,193.2749,196.3572,15,-0.07337781,-0.04938619,-0.07216607,0.4988944,-2.807233,0.6621345,-0.01955846,0.002068655,-0.05481789,-0.004656286,-0.001073565,-0.0005897768,172.17.160.76,10.64.29.0,1,unknown,2,2014-11-15 18:18:55.815,134,2014-11-15 18:16:20.024,3
2014-11-15 18:18:57.469,48856,1628.533,40.10482,-88.22184,233.4931,1.06,168.0469,12,10,1416097137,-0.2767944,-0.6180573,0.7422943,-4.787857,-33.81993,-9.636047,193.1995,196.2818,15,-0.03814818,-0.02610644,-0.08279022,0.5026039,-2.806741,0.6606921,0.01577472,0.04321763,-0.09187704,-0.01998949,0.006500974,0.01641647,172.17.160.76,10.64.29.0,1,unknown,2,2014-11-15 18:18:55.815,134,2014-11-15 18:16:20.024,3
2014-11-15 18:18:57.503,48857,1628.567,40.10482,-88.22184,233.4931,1.06,168.0469,12,10,1416097137,-0.2784882,-0.6174622,0.732132,-5.097137,-33.64787,-9.468811,193.1768,196.2591,15,-0.03927177,-0.0174453,-0.06151076,0.5041528,-2.806314,0.6605305,0.02529446,0.04127356,-0.0675069,-0.01811334,-0.006474537,0.006057449,172.17.160.76,10.64.29.0,1,unknown,2,2014-11-15 18:18:55.815,134,2014-11-15 18:16:20.024,3
2014-11-15 18:18:57.539,48858,1628.6,40.10482,-88.22184,233.4931,1.06,168.0469,12,10,1416097137,-0.2591248,-0.6234894,0.7496796,-5.165867,-33.7167,-9.134399,193.1299,196.2122,15,-0.04257223,0.004103931,-0.0221101,0.5046464,-2.803959,0.6604145,0.02726735,0.06721843,-0.008993915,-0.01688363,-0.004017906,-0.01301851,172.17.160.76,10.64.29.0,1,unknown,2,2014-11-15 18:18:55.815,134,2014-11-15 18:16:20.024,3
2014-11-15 18:18:57.574,48859,1628.633,40.10482,-88.22184,233.4931,1.06,168.0469,12,10,1416097137,-0.2566833,-0.6082764,0.7490692,-5.268963,-33.47582,-9.368469,193.0923,196.1746,15,-0.05746676,-0.01512729,-0.03701634,0.5053068,-2.800585,0.6613278,-0.001484832,0.05755885,-0.02379902,0.00559912,0.001646978,0.007470457,172.17.160.76,10.64.29.0,1,unknown,2,2014-11-15 18:18:55.815,134,2014-11-15 18:16:20.024,3
2014-11-15 18:18:57.603,48860,1628.667,40.10482,-88.22184,233.4931,1.06,168.0469,12,10,1416097137,-0.2545776,-0.6221771,0.7450104,-4.994049,-33.68229,-9.301636,193.0681,196.1504,15,-0.03935007,-0.01512036,-0.03496118,0.5067887,-2.800544,0.6605557,0.02298629,0.05431134,-0.0175724,0.0108079,0.004470631,0.004119993,172.17.160.76,10.64.29.0,1,unknown,2,2014-11-15 18:18:55.815,134,2014-11-15 18:16:20.024,3
2014-11-15 18:18:57.636,48861,1628.7,40.10482,-88.22184,233.4931,1.06,168.0469,12,10,1416097137,-0.2667999,-0.6152954,0.7367859,-5.20023,-33.54463,-9.36853,193.0348,196.1171,15,-0.07129602,-0.03116325,-0.05084827,0.5085679,-2.800159,0.6608177,0.0006271633,0.03934008,-0.03136884,-0.002051334,-0.007193787,-0.001898031,172.17.160.76,10.64.29.0,1,unknown,2,2014-11-15 18:18:55.815,134,2014-11-15 18:16:20.024,3
2014-11-15 18:18:57.672,48862,1628.733,40.10482,-88.22184,233.4931,1.06,168.0469,12,10,1416097137,-0.2676544,-0.6114502,0.7391663,-5.062775,-33.54463,-9.234741,193.0139,196.0962,15,-0.07980695,-0.03759052,-0.05828062,0.5085679,-2.800159,0.6608177,0.0006271633,0.03934008,-0.03136884,-0.002051334,-0.007193787,-0.001898031,172.17.160.76,10.64.29.0,1,unknown,2,2014-11-15 18:18:55.815,134,2014-11-15 18:16:20.024,3
2014-11-15 18:18:57.704,48863,1628.767,40.10482,-88.22184,233.4931,1.06,168.0469,12,10,1416097137,-0.2645721,-0.6211853,0.7428284,-5.406418,-33.54464,-9.569153,192.9843,196.0666,15,-0.05425898,-0.02366964,-0.04238075,0.5108142,-2.799243,0.6624049,0.002753182,0.03402724,-0.03140391,-0.005619057,-0.002431968,0.001567005,172.17.160.76,10.64.29.0,1,unknown,2,2014-11-15 18:18:55.815,134,2014-11-15 18:16:20.024,3
2014-11-15 18:18:57.736,48864,1628.8,40.10482,-88.22184,233.4931,1.06,168.0469,12,10,1416097137,-0.2637939,-0.6233368,0.7364655,-4.959679,-33.78552,-9.803223,192.9425,196.0248,15,-0.05636074,-0.03439046,-0.05516712,0.5119693,-2.798672,0.6626385,0.01128679,0.04252336,-0.03139169,0.004964922,-0.005055392,-0.002022093,172.17.160.76,10.64.29.0,1,unknown,2,2014-11-15 18:18:55.815,134,2014-11-15 18:16:20.024,3
2014-11-15 18:18:57.774,48865,1628.833,40.10482,-88.22184,233.4931,1.06,168.0469,12,10,1416097137,-0.2624969,-0.6124115,0.7541199,-5.097137,-33.71669,-10.07086,192.9272,196.0095,15,-0.06809223,-0.03224342,-0.05298892,0.5140482,-2.799029,0.6638942,-0.01427032,0.02010116,-0.04733733,-0.0009156262,-0.003394513,-0.004608041,172.17.160.76,10.64.29.0,1,unknown,2,2014-11-15 18:18:55.815,134,2014-11-15 18:16:20.024,3
2014-11-15 18:18:57.804,48866,1628.867,40.10482,-88.22184,233.4931,1.06,168.0469,12,10,1416097137,-0.2522278,-0.6156464,0.7514038,-5.543869,-34.09522,-10.03741,192.9056,195.9879,15,-0.04891268,-0.03222904,-0.04987621,0.5149258,-2.798931,0.664351,-0.004693523,0.03504464,-0.03774101,-0.001792199,-0.0004408202,0.00367861,172.17.160.76,10.64.29.0,1,unknown,2,2014-11-15 18:18:55.815,134,2014-11-15 18:16:20.024,3
2014-11-15 18:18:57.840,48867,1628.9,40.10482,-88.22184,233.4931,1.06,168.0469,12,10,1416097137,-0.2700958,-0.6161804,0.7428741,-5.921879,-33.92316,-10.07092,192.9058,195.9881,15,-0.06488606,-0.05568616,-0.06161623,0.5174481,-2.799776,0.6636675,0.01874992,0.02654443,-0.03575188,0.01182129,0.0003636604,0.009238233,172.17.160.76,10.64.29.0,1,unknown,2,2014-11-15 18:18:55.815,134,2014-11-15 18:16:20.024,3
2014-11-15 18:18:57.870,48868,1628.933,40.10482,-88.22184,233.4931,1.06,168.0469,12,10,1416097137,-0.2829132,-0.6091461,0.7447662,-5.578236,-34.40493,-9.870239,192.8972,195.9796,15,-0.06594333,-0.03122183,-0.05829899,0.519307,-2.80073,0.664166,-0.003614975,0.0147855,-0.04634606,0.0002836979,-0.002570192,-0.003144457,172.17.160.76,10.64.29.0,1,unknown,2,2014-11-15 18:18:55.815,134,2014-11-15 18:16:20.024,3
2014-11-15 18:18:57.903,48869,1628.967,40.10482,-88.22184,233.4931,1.06,168.0469,12,10,1416097137,-0.279892,-0.6165466,0.7489929,-5.028408,-34.19845,-9.468933,192.8651,195.9474,15,-0.06165351,-0.0142543,-0.06247164,0.5202153,-2.799685,0.6640084,-0.0003950671,0.04135152,-0.04621505,-0.01886671,0.007132397,0.002822681,172.17.160.76,10.64.29.0,1,unknown,2,2014-11-15 18:18:55.815,134,2014-11-15 18:16:20.024,3
2014-11-15 18:18:57.936,48870,1629,40.10482,-88.22184,233.4931,1.06,168.0469,12,10,1416097137,-0.2702942,-0.6204376,0.7415009,-4.684772,-34.47374,-9.13446,192.8134,195.8957,15,-0.04677976,-0.005617139,-0.04337517,0.5214545,-2.798477,0.6640579,0.004935911,0.05412574,-0.0429813,-0.007650621,0.0001828849,0.004681592,172.17.160.76,10.64.29.0,1,unknown,2,2014-11-15 18:18:55.815,134,2014-11-15 18:16:20.024,3
2014-11-15 18:18:57.972,48871,1629.033,40.10482,-88.22184,233.4931,1.06,168.0469,12,10,1416097137,-0.2723236,-0.6221924,0.7507477,-4.616047,-33.99197,-9.26825,192.788,195.8703,15,-0.03615667,-0.01723917,-0.03392281,0.5233862,-2.796679,0.6630993,0.03364341,0.04578669,-0.01977899,-0.003448105,-0.01712811,0.002619671,172.17.160.76,10.64.29.0,1,unknown,2,2014-11-15 18:18:55.815,134,2014-11-15 18:16:20.024,3
2014-11-15 18:18:58.003,48872,1629.067,40.10482,-88.22184,233.4931,1.06,168.0469,12,10,1416097137,-0.2697906,-0.6131287,0.7441711,-4.203674,-33.99197,-9.201355,192.7329,195.8152,15,-0.05215641,-0.01614461,-0.03067269,0.5241483,-2.79556,0.6627066,0.005920781,0.05220015,-0.01645662,-0.007266521,0.004153521,0.01248711,172.17.160.76,10.64.29.0,1,unknown,2,2014-11-15 18:18:55.815,134,2014-11-15 18:16:20.024,3
2014-11-15 18:18:58.037,48873,1629.1,40.10482,-88.22184,233.4931,1.06,168.0469,12,10,1416097137,-0.2694702,-0.616684,0.7423859,-4.238037,-34.09521,-9.50238,192.6746,195.7569,15,-0.03930053,-0.03440697,-0.05629257,0.5255026,-2.794169,0.661727,0.03049148,0.05845122,-0.03137564,0.003415005,0.000466526,0.002665082,172.17.160.76,10.64.29.0,1,unknown,2,2014-11-15 18:18:55.815,134,2014-11-15 18:16:20.024,3
2014-11-15 18:18:58.069,48874,1629.133,40.10481,-88.22183,233.4454,0.41,173.6719,12,10,1416097138,-0.2687988,-0.6176758,0.7394714,-4.134945,-34.26727,-9.402039,192.6418,195.7241,15,-0.04784182,-0.04714594,-0.05526619,0.5261348,-2.794095,0.6615272,0.02943829,0.04990252,-0.03778582,0.004152901,0.0005377956,0.003576765,172.17.160.76,10.64.29.0,1,unknown,2,2014-11-15 18:18:55.815,134,2014-11-15 18:16:20.024,3
2014-11-15 18:18:58.103,48875,1629.167,40.10481,-88.22183,233.4454,0.41,173.6719,12,10,1416097138,-0.2711334,-0.6165619,0.7401733,-4.375496,-34.02639,-9.435486,192.5834,195.6657,15,-0.06066015,-0.05133403,-0.04780987,0.5287055,-2.794492,0.6618058,0.002758603,0.01910788,-0.03678707,-0.001632329,-0.003530081,-0.004578196,172.17.160.76,10.64.29.0,1,unknown,2,2014-11-15 18:18:55.815,134,2014-11-15 18:16:20.024,3
2014-11-15 18:18:58.136,48876,1629.2,40.10481,-88.22183,233.4454,0.41,173.6719,12,10,1416097138,-0.2702026,-0.616272,0.7447815,-4.066219,-34.0608,-9.201294,192.5171,195.5994,15,-0.0670829,-0.05232952,-0.0392992,0.5293614,-2.794495,0.6621044,-0.0004708349,0.01279804,-0.02831625,-0.002841358,-0.001783923,-0.001491962,172.17.160.76,10.64.29.0,1,unknown,2,2014-11-15 18:18:55.815,134,2014-11-15 18:16:20.024,3
2014-11-15 18:18:58.169,48877,1629.233,40.10481,-88.22183,233.4454,0.41,173.6719,12,10,1416097138,-0.2700348,-0.620163,0.7414398,-4.341129,-33.99198,-9.268188,192.49,195.5723,15,-0.06491562,-0.06093526,-0.0531519,0.5304794,-2.794545,0.6623507,0.001661374,0.01705506,-0.02723998,-0.003555797,-0.003039268,0.002085442,172.17.160.76,10.64.29.0,1,unknown,2,2014-11-15 18:18:55.815,134,2014-11-15 18:16:20.024,3
2014-11-15 18:18:58.203,48878,1629.267,40.10481,-88.22183,233.4454,0.41,173.6719,12,10,1416097138,-0.2735291,-0.6081848,0.7476807,-4.341125,-33.85434,-9.870239,192.4385,195.5208,15,-0.07238445,-0.06091555,-0.05100087,0.5316574,-2.794874,0.6629231,-0.007899322,0.004196933,-0.04213266,-0.002194763,-0.00473953,0.0001465463,172.17.160.76,10.64.29.0,1,unknown,2,2014-11-15 18:18:55.815,134,2014-11-15 18:16:20.024,3
2014-11-15 18:18:58.236,48879,1629.3,40.10481,-88.22183,233.4454,0.41,173.6719,12,10,1416097138,-0.2768707,-0.6223907,0.7445831,-4.512947,-33.88874,-10.10437,192.4014,195.4837,15,-0.06387512,-0.06938867,-0.04683142,0.5330393,-2.795334,0.6632081,-0.003688838,0.006354322,-0.02836472,-0.006013308,0.005189688,0.003469082,172.17.160.76,10.64.29.0,1,unknown,2,2014-11-15 18:18:55.815,134,2014-11-15 18:16:20.024,3
2014-11-15 18:18:58.269,48880,1629.333,40.10481,-88.22183,233.4454,0.41,173.6719,12,10,1416097138,-0.2866364,-0.6148834,0.7482605,-4.306763,-33.81992,-9.970581,192.378,195.4603,15,-0.06392066,-0.07033941,-0.03197551,0.5338436,-2.795619,0.663516,0.001630438,-0.003202972,-0.02737275,-0.009706817,-0.006500062,0.003433949,172.17.160.76,10.64.29.0,1,unknown,2,2014-11-15 18:18:55.815,134,2014-11-15 18:16:20.024,3
2014-11-15 18:18:58.303,48881,1629.367,40.10481,-88.22183,233.4454,0.41,173.6719,12,10,1416097138,-0.2827148,-0.6291809,0.7445068,-4.134945,-34.0608,-10.00403,192.351,195.4333,15,-0.05972991,-0.0573826,-0.004324441,0.5338309,-2.79528,0.6633993,0.001561987,0.003357823,-0.002922367,-0.01881585,0.000594876,0.006493268,172.17.160.76,10.64.29.0,1,unknown,2,2014-11-15 18:18:55.815,134,2014-11-15 18:16:20.024,3
2014-11-15 18:18:58.336,48882,1629.4,40.10481,-88.22183,233.4454,0.41,173.6719,12,10,1416097138,-0.2681122,-0.6251678,0.7447662,-3.928757,-33.92315,-9.73645,192.2609,195.3432,15,-0.07156606,-0.02410054,0.04047738,0.5314389,-2.791971,0.6629734,0.0003593463,0.03456818,0.04926059,-0.004967801,-0.02642837,0.006556312,172.17.160.76,10.64.29.0,1,unknown,2,2014-11-15 18:18:55.815,134,2014-11-15 18:16:20.024,3
2014-11-15 18:18:58.369,48883,1629.433,40.10481,-88.22183,233.4454,0.41,173.6719,12,10,1416097138,-0.2916107,-0.5917816,0.7248077,-4.134945,-34.26727,-9.669617,192.2339,195.3162,15,-0.06411321,0.03979561,0.05989263,0.5280743,-2.787426,0.6629534,-0.01461003,0.09323368,0.07828458,0.001175702,-0.001435012,0.005932921,172.17.160.76,10.64.29.0,1,unknown,2,2014-11-15 18:18:58.289,134,2014-11-15 18:16:20.024,3
2014-11-15 18:18:58.403,48884,1629.467,40.10481,-88.22183,233.4454,0.41,173.6719,12,10,1416097138,-0.3042908,-0.5586548,0.6767578,-4.306767,-34.02639,-9.636108,192.1873,195.2696,15,-0.04489451,0.02374315,0.04593686,0.5260223,-2.783924,0.6622229,-0.0007303377,0.107017,0.07512171,-0.005189168,0.01454484,-0.005504341,172.17.160.76,10.64.29.0,1,unknown,2,2014-11-15 18:18:58.289,134,2014-11-15 18:16:20.024,3
2014-11-15 18:18:58.436,48885,1629.5,40.10481,-88.22183,233.4454,0.41,173.6719,12,10,1416097138,-0.2705536,-0.4659729,0.5923462,-4.547318,-34.19845,-9.535828,190.7726,193.8549,15,-0.02160729,0.02414688,0.1010489,0.5219477,-2.77662,0.6598831,0.0301466,0.07942724,0.08123506,-0.02229852,0.0543697,-0.06126749,172.17.160.76,10.64.29.0,1,unknown,2,2014-11-15 18:18:58.289,134,2014-11-15 18:16:20.024,3
2014-11-15 18:18:58.469,48886,1629.533,40.10481,-88.22183,233.4454,0.41,173.6719,12,10,1416097138,-0.26474,-0.4619904,0.5664673,-4.684772,-33.85432,-9.602722,191.1311,194.2134,15,0.005988917,0.05850379,0.1499546,0.5185336,-2.771833,0.6575406,0.04812462,0.1000066,0.1343501,0.01548689,0.1451992,-0.1456575,172.17.160.76,10.64.29.0,1,unknown,2,2014-11-15 18:18:58.289,134,2014-11-15 18:16:20.024,3
2014-11-15 18:18:58.503,48887,1629.567,40.10481,-88.22183,233.4454,0.41,173.6719,12,10,1416097138,-0.2471771,-0.5262604,0.562088,-5.097141,-33.7855,-9.669556,191.6371,194.7194,15,0.03469912,0.05015638,0.1720943,0.5137969,-2.765301,0.6539449,0.08213601,0.1300536,0.1757787,0.02692056,0.1463318,-0.1716914,172.17.160.76,10.64.29.0,1,unknown,2,2014-11-15 18:18:58.289,134,2014-11-15 18:16:20.024,3
2014-11-15 18:18:58.536,48888,1629.6,40.10481,-88.22183,233.4454,0.41,173.6719,12,10,1416097138,-0.1578369,-0.5124512,0.5762634,-5.268963,-33.33814,-9.769836,192.261,195.3433,15,0.06414383,0.03518515,0.3024675,0.5056102,-2.75631,0.6463543,0.136158,0.090438,0.2804544,0.07454855,0.0669407,-0.1740447,172.17.160.76,10.64.29.0,1,unknown,2,2014-11-15 18:18:58.289,134,2014-11-15 18:16:20.024,3
2014-11-15 18:18:58.569,48889,1629.633,40.10481,-88.22183,233.4454,0.41,173.6719,12,10,1416097138,-0.118576,-0.447876,0.576004,-5.715702,-33.44138,-9.803345,193.1342,196.2166,15,-0.009265138,-0.0002833603,0.244174,0.4925745,-2.744063,0.6376122,0.06785273,0.1034385,0.3094385,0.1966348,0.1176632,-0.1595624,172.17.160.76,10.64.29.0,1,unknown,2,2014-11-15 18:18:58.289,134,2014-11-15 18:16:20.024,3
2014-11-15 18:18:58.603,48890,1629.667,40.10481,-88.22183,233.4454,0.41,173.6719,12,10,1416097138,-0.1847382,-0.4489136,0.599762,-5.990623,-33.5102,-9.535767,193.7128,196.7951,15,-0.02149943,-0.1177144,0.02918212,0.486196,-2.739294,0.6338015,0.04487512,-0.02123408,0.1199241,0.1750344,0.1507144,-0.1640585,172.17.160.76,10.64.29.0,1,unknown,2,2014-11-15 18:18:58.289,134,2014-11-15 18:16:20.024,3
2014-11-15 18:18:58.636,48891,1629.7,40.10481,-88.22183,233.4454,0.41,173.6719,12,10,1416097138,-0.2411652,-0.4966736,0.6032562,-6.506088,-34.02639,-9.435364,194.3082,197.3905,15,-0.01775876,-0.08181124,-0.1415414,0.4869329,-2.741143,0.632712,0.04120497,-0.03975191,-0.08184129,0.1081179,0.1355082,-0.1365938,172.17.160.76,10.64.29.0,1,unknown,2,2014-11-15 18:18:58.289,134,2014-11-15 18:16:20.024,3
2014-11-15 18:18:58.670,48892,1629.733,40.10481,-88.22183,233.4454,0.41,173.6719,12,10,1416097138,-0.2168427,-0.5521393,0.6288757,-6.299904,-33.88874,-9.569153,194.1202,197.2025,15,-0.01860831,-0.01102389,-0.1953011,0.4925379,-2.744252,0.6331573,0.04260701,0.04138036,-0.1727068,0.07079371,0.09501939,-0.1401018,172.17.160.76,10.64.29.0,1,unknown,2,2014-11-15 18:18:58.289,134,2014-11-15 18:16:20.024,3
2014-11-15 18:18:58.703,48893,1629.767,40.10481,-88.22183,233.4454,0.41,173.6719,12,10,1416097138,-0.2441101,-0.559845,0.6531677,-5.956264,-34.02639,-9.569153,193.5105,196.5928,15,-0.03994955,-0.09293739,-0.2094518,0.4994218,-2.747102,0.6341198,0.03622589,0.01355581,-0.1898293,0.09277784,0.04032937,-0.114842,172.17.160.76,10.64.29.0,1,unknown,2,2014-11-15 18:18:58.289,134,2014-11-15 18:16:20.024,3
2014-11-15 18:18:58.736,48894,1629.8,40.10481,-88.22183,233.4454,0.41,173.6719,12,10,1416097138,-0.3135376,-0.4581909,0.6381836,-5.37207,-33.7855,-9.937012,192.6989,195.7812,15,-0.07660875,-0.4123308,-0.1536764,0.5080675,-2.756741,0.6368752,-0.02372344,-0.2455538,-0.1729242,0.03099509,0.04765856,-0.09216709,172.17.160.76,10.64.29.0,1,unknown,2,2014-11-15 18:18:58.289,134,2014-11-15 18:16:20.024,3
2014-11-15 18:18:58.769,48895,1629.833,40.10481,-88.22183,233.4454,0.41,173.6719,12,10,1416097138,-0.3400879,-0.5263824,0.6409607,-5.475166,-33.95756,-10.10437,192.6943,195.7766,15,-0.01719843,-0.2817566,-0.02477193,0.5127128,-2.769268,0.6388349,0.005860641,-0.3343323,-0.1076907,-0.0337496,0.1454701,-0.1143032,172.17.160.76,10.64.29.0,1,unknown,2,2014-11-15 18:18:58.289,134,2014-11-15 18:16:20.024,3
2014-11-15 18:18:58.803,48896,1629.867,40.10481,-88.22183,233.4454,0.41,173.6719,12,10,1416097138,-0.2959137,-0.5706329,0.6489258,-5.818806,-33.88874,-10.57257,193.0828,196.1651,15,-0.03988217,-0.05424486,0.1314875,0.5131343,-2.777037,0.6372848,0.03743457,-0.04163016,0.1017828,-0.04686828,0.04632463,-0.1039539,172.17.160.76,10.64.29.0,1,unknown,2,2014-11-15 18:18:58.289,134,2014-11-15 18:16:20.024,3
2014-11-15 18:18:58.836,48897,1629.9,40.10481,-88.22183,233.4454,0.41,173.6719,12,10,1416097138,-0.1947174,-0.5340576,0.6914825,-5.887539,-33.81992,-10.84015,193.2741,196.3564,15,-0.06994367,-0.05476524,0.2016551,0.5073621,-2.772982,0.6350927,-0.003339076,0.03037492,0.2074013,0.02173778,0.02753258,-0.1047177,172.17.160.76,10.64.29.0,1,unknown,2,2014-11-15 18:18:58.289,134,2014-11-15 18:16:20.024,3
2014-11-15 18:18:58.869,48898,1629.933,40.10481,-88.22183,233.4454,0.41,173.6719,12,10,1416097138,-0.1630249,-0.5287933,0.7384491,-6.403008,-33.37256,-10.94043,194.3599,197.4422,15,-0.01529879,-0.2247527,0.06680859,0.4986109,-2.769465,0.6320929,0.02979782,-0.1179167,0.1364763,0.1206491,0.06478783,-0.03436378,172.17.160.76,10.64.29.0,1,unknown,2,2014-11-15 18:18:58.289,134,2014-11-15 18:16:20.024,3
2014-11-15 18:18:58.903,48899,1629.967,40.10481,-88.22183,233.4454,0.41,173.6719,12,10,1416097138,-0.2497711,-0.6039276,0.7570038,-7.227749,-33.57904,-10.80664,195.468,198.5503,15,-0.002253567,-0.3403669,-0.04636617,0.4974865,-2.772233,0.6306788,0.05564834,-0.2122776,0.02442697,0.1285434,0.06089973,-0.01471091,172.17.160.76,10.64.29.0,1,unknown,2,2014-11-15 18:18:58.289,134,2014-11-15 18:16:20.024,3
2014-11-15 18:18:58.936,48900,1630,40.10481,-88.22183,233.4454,0.41,173.6719,12,10,1416097138,-0.2643738,-0.5869904,0.7562866,-7.537025,-33.4758,-10.77319,195.9813,199.0636,15,-0.0118002,-0.2936396,-0.05033028,0.5008926,-2.784521,0.6287805,0.08146352,-0.2171245,-0.05318351,-0.008012644,-0.03853482,-0.007779031,172.17.160.76,10.64.29.0,1,unknown,2,2014-11-15 18:18:58.289,134,2014-11-15 18:16:20.024,3
2014-11-15 18:18:58.969,48901,1630.033,40.10481,-88.22183,233.4454,0.41,173.6719,12,10,1416097138,-0.3217773,-0.6436157,0.8299103,-7.605751,-33.81992,-10.7063,195.6844,198.7667,15,-0.1189805,0.01178822,-0.1353621,0.5026035,-2.789929,0.6289917,-0.05052659,-0.01635502,-0.06861582,0.01416424,0.001339366,-0.002847564,172.17.160.76,10.64.29.0,1,unknown,2,2014-11-15 18:18:58.289,134,2014-11-15 18:16:20.024,3
2014-11-15 18:18:59.003,48902,1630.067,40.10481,-88.22183,233.4454,0.41,173.6719,12,10,1416097138,-0.2723236,-0.6400452,0.8381195,-7.983757,-33.57904,-11.14111,196.3334,199.4157,15,-0.08520438,0.009422264,-0.02404542,0.5066944,-2.790127,0.632304,-0.03337102,0.03023059,-0.0896645,-0.04406263,-0.05261086,0.07255449,172.17.160.76,10.64.29.0,1,unknown,2,2014-11-15 18:18:58.289,134,2014-11-15 18:16:20.024,3
2014-11-15 18:18:59.035,48903,1630.1,40.10481,-88.22183,233.4454,0.41,173.6719,12,10,1416097138,-0.2653198,-0.602005,0.8009491,-8.189945,-33.64786,-11.54242,196.6253,199.7076,15,-0.07453096,0.1030697,-0.004485562,0.5073789,-2.789585,0.6330897,-0.0218531,0.07652352,-0.008791286,-0.01404239,-0.05432711,0.09120766,172.17.160.76,10.64.29.0,1,unknown,2,2014-11-15 18:18:58.289,134,2014-11-15 18:16:20.024,3
2014-11-15 18:18:59.069,48904,1630.133,40.1048,-88.22183,233.1092,0.69,174.0234,12,10,1416097139,-0.3297119,-0.7135925,0.8244781,-9.186512,-33.61345,-12.4455,198.1001,201.1824,15,-0.08598442,-0.1211733,-0.152108,0.5078116,-2.78428,0.6335424,0.002864728,0.0898531,-0.07144123,-0.009239759,-0.04973553,0.04210183,172.17.160.76,10.64.29.0,1,unknown,2,2014-11-15 18:18:58.289,134,2014-11-15 18:16:20.024,3
2014-11-15 18:18:59.103,48905,1630.167,40.1048,-88.22183,233.1092,0.69,174.0234,12,10,1416097139,-0.3080444,-0.6668396,0.8585052,-9.083416,-33.71668,-12.67963,198.1088,201.1911,15,-0.1320528,-0.06628661,-0.06248202,0.5118687,-2.787495,0.6353517,-0.04611384,-0.05931842,-0.1293635,-0.05063062,-0.120132,0.06954889,172.17.160.76,10.64.29.0,1,unknown,2,2014-11-15 18:18:58.289,134,2014-11-15 18:16:20.024,3
2014-11-15 18:18:59.136,48906,1630.2,40.1048,-88.22183,233.1092,0.69,174.0234,12,10,1416097139,-0.2976379,-0.6511383,0.8096924,-9.35833,-33.37256,-13.0141,199.1419,202.2242,15,-0.1192201,-0.08129726,-0.07959283,0.5129776,-2.788179,0.6382747,-0.05282232,0.02876031,-0.003619777,-0.0154175,-0.03105089,0.09398389,172.17.160.76,10.64.29.0,1,unknown,2,2014-11-15 18:18:58.289,134,2014-11-15 18:16:20.024,3
2014-11-15 18:18:59.169,48907,1630.233,40.1048,-88.22183,233.1092,0.69,174.0234,12,10,1416097139,-0.2975464,-0.65271,0.8260193,-9.014687,-33.23493,-13.14789,199.1262,202.2085,15,-0.145823,-0.1612507,-0.1160046,0.51412,-2.789173,0.6404454,-0.06755504,-0.06007568,-0.09001255,-0.02087081,-0.05358572,0.05714281,172.17.160.76,10.64.29.0,1,unknown,2,2014-11-15 18:18:58.289,134,2014-11-15 18:16:20.024,3
2014-11-15 18:18:59.203,48908,1630.267,40.1048,-88.22183,233.1092,0.69,174.0234,12,10,1416097139,-0.3806,-0.7565765,0.9073334,-9.049049,-33.7511,-14.1178,199.0941,202.1764,15,-0.1522034,-0.04631077,-0.09202287,0.5168011,-2.79339,0.645399,-0.1101836,-0.006860869,-0.08108094,-0.04588841,-0.06231642,0.09666158,172.17.160.76,10.64.29.0,1,unknown,2,2014-11-15 18:18:58.289,134,2014-11-15 18:16:20.024,3
2014-11-15 18:18:59.236,48909,1630.3,40.1048,-88.22183,233.1092,0.69,174.0234,12,10,1416097139,-0.3438721,-0.7303009,0.9223022,-9.255238,-33.81993,-14.0509,199.0895,202.1718,15,-0.166099,-0.001498827,-0.06838226,0.5182894,-2.793486,0.6483262,-0.07078064,0.04201505,-0.0596493,-0.108696,-0.1527234,0.1580473,172.17.160.76,10.64.29.0,1,unknown,2,2014-11-15 18:18:58.289,134,2014-11-15 18:16:20.024,3
2014-11-15 18:18:59.269,48910,1630.333,40.1048,-88.22183,233.1092,0.69,174.0234,12,10,1416097139,-0.3477631,-0.6860352,0.9561462,-9.598881,-33.81993,-14.25153,199.0972,202.1795,15,-0.2406427,-0.03892423,-0.1043906,0.5187007,-2.791985,0.6526784,-0.1730784,0.04621232,-0.0730435,-0.07174633,-0.1229845,0.1759013,172.17.160.76,10.64.29.0,1,unknown,2,2014-11-15 18:18:58.289,134,2014-11-15 18:16:20.024,3
2014-11-15 18:18:59.303,48911,1630.367,40.1048,-88.22183,233.1092,0.69,174.0234,12,10,1416097139,-0.4519348,-0.7776794,0.9828186,-9.908161,-33.92317,-14.21808,199.6955,202.7778,20,-0.1713406,0.1036774,-0.07099321,0.5202373,-2.791638,0.6597127,-0.1240248,0.05785992,-0.07528893,-0.1098695,-0.1022133,0.2200665,172.17.160.76,10.64.29.0,1,unknown,2,2014-11-15 18:18:58.289,134,2014-11-15 18:16:20.024,3
2014-11-15 18:18:59.336,48912,1630.4,40.1048,-88.22183,233.1092,0.69,174.0234,12,10,1416097139,-0.4227905,-0.8113251,0.9947815,-9.358334,-33.64787,-14.35193,199.6817,202.764,20,-0.07977179,0.2093085,-0.007090933,0.5208232,-2.787314,0.663277,-0.08667865,0.2355429,-0.04158726,-0.1741491,-0.1582539,0.2491619,172.17.160.76,10.64.29.0,1,unknown,2,2014-11-15 18:18:58.289,134,2014-11-15 18:16:20.024,3
2014-11-15 18:18:59.369,48913,1630.433,40.1048,-88.22183,233.1092,0.69,174.0234,12,10,1416097139,-0.3236847,-0.9098969,1.022339,-9.46143,-33.81993,-14.71979,199.5975,202.6798,20,-0.04585431,0.09693533,0.02934218,0.5204216,-2.779089,0.6641326,0.006918832,0.2424225,0.03134065,-0.1157455,-0.2352777,0.2642421,172.17.160.76,10.64.29.0,1,unknown,2,2014-11-15 18:18:58.289,134,2014-11-15 18:16:20.024,3
2014-11-15 18:18:59.403,48914,1630.467,40.1048,-88.22183,233.1092,0.69,174.0234,12,10,1416097139,-0.4230957,-0.8612976,0.9992828,-9.736347,-33.40699,-14.85358,200.2683,203.3506,20,-0.1257723,0.1075294,0.02014388,0.5190447,-2.772851,0.6633549,-0.009161186,0.1628069,0.04053485,-0.03968151,-0.2941331,0.2873714,172.17.160.76,10.64.29.0,1,unknown,2,2014-11-15 18:18:58.289,134,2014-11-15 18:16:20.024,3
2014-11-15 18:18:59.436,48915,1630.5,40.1048,-88.22183,233.1092,0.69,174.0234,12,10,1416097139,-0.5365143,-0.8270111,1.023224,-10.07999,-33.81993,-14.92047,200.6251,203.7074,20,-0.1609484,0.2363534,0.05173697,0.5153241,-2.762853,0.6667387,-0.1338416,0.2372667,0.04351667,-0.1730576,-0.2330445,0.2773258,172.17.160.76,10.64.29.0,1,unknown,2,2014-11-15 18:18:58.289,134,2014-11-15 18:16:20.024,3
2014-11-15 18:18:59.469,48916,1630.533,40.1048,-88.22183,233.1092,0.69,174.0234,12,10,1416097139,-0.5260468,-0.7789917,0.9905243,-10.01126,-33.81993,-14.92047,200.722,203.8043,20,-0.08613702,0.6169751,0.08636712,0.5099581,-2.742084,0.6670408,-0.004785226,0.6234934,0.1204324,-0.2346137,-0.1861916,0.2918225,172.17.160.76,10.64.29.0,1,unknown,2,2014-11-15 18:18:58.289,134,2014-11-15 18:16:20.024,3
2014-11-15 18:18:59.503,48917,1630.567,40.1048,-88.22183,233.1092,0.69,174.0234,12,10,1416097139,-0.5126495,-0.742691,1.082062,-9.4958,-33.85434,-14.9538,200.4035,203.4858,20,-0.1381169,0.5077689,-0.02653041,0.5075671,-2.727056,0.6669667,-0.06104476,0.6729522,0.05296859,-0.209593,-0.1603861,0.2713691,172.17.160.76,10.64.29.0,1,unknown,2,2014-11-15 18:18:58.289,134,2014-11-15 18:16:20.024,3
2014-11-15 18:18:59.536,48918,1630.6,40.1048,-88.22183,233.1092,0.69,174.0234,12,10,1416097139,-0.3158264,-0.793335,0.7555084,-9.083427,-33.37257,-15.3551,200.6229,203.7052,20,0.09494755,0.4564956,0.09333581,0.5088239,-2.708163,0.6677211,0.110567,0.4621353,0.006633462,-0.1710977,-0.143131,0.3233249,172.17.160.76,10.64.29.0,1,unknown,2,2014-11-15 18:18:58.289,134,2014-11-15 18:16:20.024,3
2014-11-15 18:18:59.568,48919,1630.633,40.1048,-88.22183,233.1092,0.69,174.0234,12,10,1416097139,-0.3157349,-0.6930695,0.8181763,-8.396149,-33.30376,-15.95715,200.0959,203.1783,20,0.0675066,0.3605393,0.3307052,0.5072058,-2.696851,0.6637949,0.1461681,0.5116358,0.2328564,-0.04496375,-0.1742033,0.09354315,172.17.160.76,10.64.29.0,1,unknown,2,2014-11-15 18:18:58.289,134,2014-11-15 18:16:20.024,3
2014-11-15 18:18:59.603,48920,1630.667,40.1048,-88.22183,233.1092,0.69,174.0234,12,10,1416097139,-0.4029846,-0.6965637,0.7986298,-8.293056,-32.85641,-16.45892,200.8401,203.9224,20,0.00246156,0.05081151,0.257137,0.4879277,-2.670635,0.6499665,0.07191323,0.1184455,0.363749,0.0115385,-0.06929404,0.1067876,172.17.160.76,10.64.29.0,1,unknown,2,2014-11-15 18:18:58.289,134,2014-11-15 18:16:20.024,3
2014-11-15 18:18:59.636,48921,1630.7,40.1048,-88.22183,233.1092,0.69,174.0234,12,10,1416097139,-0.4193573,-0.6505432,0.782608,-8.327423,-33.23494,-16.49237,200.933,204.0153,20,-0.02111434,0.3305835,0.01561917,0.4812118,-2.661838,0.6454931,0.0268015,0.2497192,0.1554972,-0.04132225,-0.07132015,0.09607783,172.17.160.76,10.64.29.0,1,unknown,2,2014-11-15 18:18:58.289,134,2014-11-15 18:16:20.024,3
2014-11-15 18:18:59.669,48922,1630.733,40.1048,-88.22183,233.1092,0.69,174.0234,12,10,1416097139,-0.373703,-0.7011414,0.7679291,-8.671066,-32.89082,-16.49237,201.7519,204.8342,20,-0.008236092,0.1121207,-0.06837507,0.480242,-2.650233,0.6438112,0.04980045,0.3482498,-0.02239914,-0.02339996,-0.04677035,0.06124402,172.17.160.76,10.64.29.0,1,unknown,2,2014-11-15 18:18:58.289,134,2014-11-15 18:16:20.024,3
2014-11-15 18:18:59.702,48923,1630.767,40.1048,-88.22183,233.1092,0.69,174.0234,12,10,1416097139,-0.4353638,-0.7020569,0.8147888,-9.014713,-32.82201,-15.68964,202.1935,205.2758,20,-0.04275759,-0.0550502,0.0242843,0.4826601,-2.645598,0.6430186,0.04745702,0.08901575,-0.01844816,0.007160117,-0.1015274,0.06407796,172.17.160.76,10.64.29.0,1,unknown,2,2014-11-15 18:18:58.289,134,2014-11-15 18:16:20.024,3
2014-11-15 18:18:59.736,48924,1630.8,40.1048,-88.22183,233.1092,0.69,174.0234,12,10,1416097139,-0.45784,-0.6247253,0.8336639,-9.117805,-32.78759,-15.38867,202.304,205.3864,20,-0.005188104,-0.1557843,-0.08678097,0.4825649,-2.645317,0.641808,0.02818268,-0.04490291,-0.02438873,-0.0655234,-0.06528049,0.1192725,172.17.160.76,10.64.29.0,1,unknown,2,2014-11-15 18:18:58.289,134,2014-11-15 18:16:20.024,3
2014-11-15 18:18:59.769,48925,1630.833,40.1048,-88.22183,233.1092,0.69,174.0234,12,10,1416097139,-0.4775085,-0.6739197,0.8083801,-8.911617,-33.06289,-14.58594,201.733,204.8153,20,0.05448508,-0.2973398,-0.1142869,0.4869049,-2.65173,0.6408916,0.1136112,-0.1858324,-0.1082464,-0.07468875,-0.02937852,0.1180202,172.17.160.76,10.64.29.0,1,unknown,2,2014-11-15 18:18:58.289,134,2014-11-15 18:16:20.024,3
2014-11-15 18:18:59.803,48926,1630.867,40.1048,-88.22183,233.1092,0.69,174.0234,12,10,1416097139,-0.4809265,-0.6702118,0.7767334,-8.086887,-33.54465,-14.58594,200.2315,203.3138,20,-0.04303002,-0.3492629,0.03971972,0.4919379,-2.665015,0.6391004,0.03008309,-0.2796039,-0.007586783,-0.1187533,-0.0926285,0.07725573,172.17.160.76,10.64.29.0,1,unknown,2,2014-11-15 18:18:58.289,134,2014-11-15 18:16:20.024,3
2014-11-15 18:18:59.836,48927,1630.9,40.1048,-88.22183,233.1092,0.69,174.0234,12,10,1416097139,-0.3986816,-0.6190643,0.7318573,-7.777611,-33.51024,-14.68634,199.7114,202.7937,20,0.04191389,-0.3218377,0.1594935,0.4894405,-2.671798,0.6369355,0.06053196,-0.2614197,0.1516172,-0.1054829,-0.05937916,0.05406328,172.17.160.76,10.64.29.0,1,unknown,2,2014-11-15 18:18:58.289,134,2014-11-15 18:16:20.024,3
2014-11-15 18:18:59.869,48928,1630.933,40.1048,-88.22183,233.1092,0.69,174.0234,12,10,1416097139,-0.3396606,-0.6394653,0.7190857,-7.915062,-33.44141,-14.21808,199.5321,202.6144,20,0.080273,-0.4069768,0.1440408,0.4847438,-2.680468,0.6290681,0.1542563,-0.3325735,0.1625677,-0.01338823,-0.02897907,-0.00537239,172.17.160.76,10.64.29.0,1,unknown,2,2014-11-15 18:18:58.289,134,2014-11-15 18:16:20.024,3
2014-11-15 18:18:59.903,48929,1630.967,40.1048,-88.22183,233.1092,0.69,174.0234,12,10,1416097139,-0.3246918,-0.5952454,0.7365112,-8.327435,-33.23495,-14.01746,199.9945,203.0768,20,0.0641662,-0.3821934,0.1888139,0.482659,-2.685975,0.6250569,0.1361035,-0.329297,0.1732677,0.01716208,-0.0543219,-0.009120811,172.17.160.76,10.64.29.0,1,unknown,2,2014-11-15 18:18:58.289,134,2014-11-15 18:16:20.024,3
2014-11-15 18:18:59.936,48930,1631,40.1048,-88.22183,233.1092,0.69,174.0234,12,10,1416097139,-0.3080139,-0.4828491,0.6815186,-8.430519,-33.20053,-12.71301,199.8046,202.8869,20,0.001123055,-0.2178503,0.2790799,0.4768844,-2.691421,0.6188989,0.09855031,-0.2530911,0.2725273,0.03344455,0.01722668,-0.008576742,172.17.160.76,10.64.29.0,1,unknown,2,2014-11-15 18:18:58.289,134,2014-11-15 18:16:20.024,3
2014-11-15 18:18:59.969,48931,1631.033,40.1048,-88.22183,233.1092,0.69,174.0234,12,10,1416097139,-0.3530426,-0.4634705,0.6481476,-8.39616,-33.23494,-12.34515,199.5338,202.6161,20,0.04960484,-0.19679,0.115541,0.466648,-2.691817,0.6117547,0.07116053,-0.1272115,0.1958045,0.04507845,0.1137487,-0.0666912,172.17.160.76,10.64.29.0,1,unknown,2,2014-11-15 18:18:58.289,134,2014-11-15 18:16:20.024,3
2014-11-15 18:19:00.003,48932,1631.067,40.1048,-88.22183,233.1092,0.69,174.0234,12,10,1416097139,-0.3799896,-0.502655,0.6178894,-8.39616,-33.57906,-11.47565,199.0972,202.1795,20,0.04642023,-0.04245558,0.150333,0.4636456,-2.693869,0.607029,0.1225429,-0.09689343,0.1331442,0.002530662,0.1069593,-0.09224258,172.17.160.76,10.64.29.0,1,unknown,2,2014-11-15 18:18:58.289,134,2014-11-15 18:16:20.024,3
2014-11-15 18:19:00.036,48933,1631.1,40.1048,-88.22183,233.1092,0.69,174.0234,12,10,1416097139,-0.3610992,-0.4269104,0.5894623,-8.12125,-33.992,-10.87366,198.4226,201.5049,20,0.09862298,0.2013973,0.2236025,0.4570317,-2.685864,0.5976412,0.1459853,0.2384687,0.2218638,-0.02012813,0.08437683,-0.1335776,172.17.160.76,10.64.29.0,1,unknown,2,2014-11-15 18:18:58.289,134,2014-11-15 18:16:20.024,3
2014-11-15 18:19:00.069,48934,1631.133,40.1048,-88.22183,233.0157,0.79,174.7266,12,10,1416097140,-0.3210907,-0.3835754,0.5852966,-8.293068,-33.95759,-10.10437,198.3645,201.4468,20,0.104965,0.2185635,0.2459602,0.4553317,-2.68229,0.595185,0.1619474,0.2683413,0.238945,-0.002079969,0.1056144,-0.1425727,172.17.160.76,10.64.29.0,1,unknown,2,2014-11-15 18:18:58.289,134,2014-11-15 18:16:20.024,3
2014-11-15 18:19:00.103,48935,1631.167,40.1048,-88.22183,233.0157,0.79,174.7266,12,10,1416097140,-0.3038025,-0.3347473,0.5267334,-8.258694,-33.64788,-9.401978,198.4142,201.4966,20,0.1527765,0.1018372,0.2695806,0.4457985,-2.663573,0.5813574,0.1926861,0.2208597,0.2852849,0.06740142,0.1840466,-0.1732232,172.17.160.76,10.64.29.0,1,unknown,2,2014-11-15 18:18:58.289,134,2014-11-15 18:16:20.024,3
2014-11-15 18:19:00.136,48936,1631.2,40.1048,-88.22183,233.0157,0.79,174.7266,12,10,1416097140,-0.2485504,-0.3846436,0.4847717,-8.327423,-33.23494,-9.335083,198.692,201.7743,20,0.2370626,0.01220101,0.2242107,0.4409731,-2.656847,0.5711694,0.277946,0.08993298,0.259862,0.09514276,0.1988651,-0.235652,172.17.160.76,10.64.29.0,1,unknown,2,2014-11-15 18:18:58.289,134,2014-11-15 18:16:20.024,3
2014-11-15 18:19:00.169,48937,1631.233,40.1048,-88.22183,233.0157,0.79,174.7266,12,10,1416097140,-0.2229309,-0.3629608,0.4909515,-8.567974,-33.20052,-9.301636,199.0793,202.1616,20,0.2190714,-0.05944762,0.1623348,0.4389023,-2.653592,0.5599353,0.3079352,0.05443637,0.2043656,0.1487101,0.1464878,-0.2636156,172.17.160.76,10.64.29.0,1,unknown,2,2014-11-15 18:18:58.289,134,2014-11-15 18:16:20.024,3
2014-11-15 18:19:00.203,48938,1631.267,40.1048,-88.22183,233.0157,0.79,174.7266,12,10,1416097140,-0.1994171,-0.381485,0.4847107,-8.774162,-33.33817,-8.766418,199.0577,202.14,20,0.1222154,-0.1460211,0.08899938,0.4380276,-2.652736,0.5498973,0.2557808,-0.01813837,0.1585349,0.1774539,0.1596389,-0.2617646,172.17.160.76,10.64.29.0,1,unknown,2,2014-11-15 18:18:58.289,134,2014-11-15 18:16:20.024,3
2014-11-15 18:19:00.236,48939,1631.3,40.1048,-88.22183,233.0157,0.79,174.7266,12,10,1416097140,-0.2223511,-0.4187622,0.5334167,-8.602341,-33.51023,-8.197754,198.5597,201.642,20,0.04127447,-0.2739322,0.03024738,0.4380135,-2.656276,0.5415251,0.1451094,-0.1486237,0.05538144,0.1881052,0.1171739,-0.2616193,172.17.160.76,10.64.29.0,1,unknown,2,2014-11-15 18:18:58.289,134,2014-11-15 18:16:20.024,3
