time,timestamp,recordtime,lat,long,alt,speed,course,verticalAccuracy,horizontalAccuracy,locTimeStamp,accelerationX,accelerationY,accelerationZ,HeadingX,HeadingY,HeadingZ,TrueHeading,MagneticHeading,HeadingAccuracy,RotationX,RotationY,RotationZ,motionYaw,motionRoll,motionPitch,motionRotationRateX,motionRotationRateY,motionRotationRateZ,motionUserAccelerationX,motionUserAccelerationY,motionUserAccelerationZ,en0,pdp_ip0,DeviceOrientation,Activity,Activity Confidence,Activity Start,Steps,Last Step Date,State
2014-11-15 18:19:05.136,49086,1636.2,40.10475,-88.22184,232.7309,1.54,169.4531,16,30,1416097145,-0.2661896,-0.5798798,0.7608643,-3.756954,-34.37058,-8.231506,190.5628,193.6451,15,-0.02903938,-0.1100647,0.05684917,0.5350757,-2.800357,0.6409685,0.0426485,-0.03513592,0.08212846,-0.007955339,0.01151571,-0.004082428,172.17.160.76,10.64.29.0,1,unknown,2,2014-11-15 18:18:58.289,134,2014-11-15 18:16:20.024,3
2014-11-15 18:19:05.169,49087,1636.233,40.10475,-88.22184,232.7309,1.54,169.4531,16,30,1416097145,-0.2674866,-0.576889,0.7568512,-3.447678,-34.54264,-7.997375,190.5074,193.5897,15,-0.0567011,-0.1165783,0.03675029,0.5338942,-2.800774,0.6387991,0.02138185,-0.04589715,0.06304645,0.00365263,0.02001409,0.005937479,172.17.160.76,10.64.29.0,1,unknown,2,2014-11-15 18:18:58.289,134,2014-11-15 18:16:20.024,3
2014-11-15 18:19:05.203,49088,1636.267,40.10475,-88.22184,232.7309,1.54,169.4531,16,30,1416097145,-0.2554779,-0.5769348,0.7634583,-3.997505,-34.54264,-8.331787,190.4311,193.5134,15,-0.08000749,-0.0956421,-0.006572948,0.53198,-2.801264,0.6374862,-0.02002887,-0.03563407,0.01230734,0.004977162,0.0159689,0.002825815,172.17.160.76,10.64.29.0,1,unknown,2,2014-11-15 18:18:58.289,134,2014-11-15 18:16:20.024,3
2014-11-15 18:19:05.236,49089,1636.3,40.10475,-88.22184,232.7309,1.54,169.4531,16,30,1416097145,-0.250412,-0.606781,0.7526093,-4.13496,-34.19852,-8.131104,190.3822,193.4645,15,-0.06940438,-0.1295708,0.0038235,0.5317113,-2.802396,0.637211,-0.004061383,-0.03983891,0.01965566,0.01558806,0.02166809,0.002612499,172.17.160.76,10.64.29.0,1,unknown,2,2014-11-15 18:18:58.289,134,2014-11-15 18:16:20.024,3
2014-11-15 18:19:05.268,49090,1636.333,40.10475,-88.22184,232.7309,1.54,169.4531,16,30,1416097145,-0.2664948,-0.6023254,0.7641602,-4.238049,-34.23293,-8.499023,190.3646,193.4469,15,-0.07896299,-0.1371081,-0.009979663,0.5311562,-2.803159,0.6371233,-0.006211337,-0.06321535,0.01954055,0.01719318,0.006445664,-0.01050386,172.17.160.76,10.64.29.0,1,unknown,2,2014-11-15 18:18:58.289,134,2014-11-15 18:16:20.024,3
2014-11-15 18:19:05.303,49091,1636.367,40.10475,-88.22184,232.7309,1.54,169.4531,16,30,1416097145,-0.2706757,-0.5705109,0.765625,-4.272415,-33.78558,-8.131104,190.3323,193.4146,15,-0.1257659,-0.1309567,-0.04267795,0.5309514,-2.806139,0.6388329,-0.06580593,-0.07313714,-0.0205694,-0.01030423,0.005469108,0.01121132,172.17.160.76,10.64.29.0,1,unknown,2,2014-11-15 18:18:58.289,134,2014-11-15 18:16:20.024,3
2014-11-15 18:19:05.336,49092,1636.4,40.10475,-88.22184,232.7309,1.54,169.4531,16,30,1416097145,-0.2724915,-0.5896454,0.7542572,-4.066231,-33.8544,-8.064209,190.2936,193.3759,15,-0.08095211,-0.1300123,-0.05557857,0.5310228,-2.807938,0.6380431,-0.02307982,-0.04991497,-0.03864404,-0.007608399,0.02511384,0.006660684,172.17.160.76,10.64.29.0,1,unknown,2,2014-11-15 18:18:58.289,134,2014-11-15 18:16:20.024,3
2014-11-15 18:19:05.370,49093,1636.433,40.10475,-88.22184,232.7309,1.54,169.4531,16,30,1416097145,-0.279953,-0.5888062,0.7635803,-4.238049,-33.54469,-7.763184,190.2772,193.3595,15,-0.08526909,-0.1490411,-0.04292483,0.5317656,-2.809751,0.6380157,-0.02416098,-0.07435256,-0.03876542,-0.01079492,0.005957267,-0.005198131,172.17.160.76,10.64.29.0,1,unknown,2,2014-11-15 18:18:58.289,134,2014-11-15 18:16:20.024,3
2014-11-15 18:19:05.403,49094,1636.467,40.10475,-88.22184,232.7309,1.54,169.4531,16,30,1416097145,-0.2816467,-0.5818176,0.760025,-4.031868,-33.95763,-8.164551,190.2356,193.3179,15,-0.08106156,-0.1265449,-0.01840804,0.5315777,-2.811611,0.6386533,-0.01997019,-0.0667116,-0.01219948,-0.01979285,0.007308571,0.003998904,172.17.160.76,10.64.29.0,1,unknown,2,2014-11-15 18:18:58.289,134,2014-11-15 18:16:20.024,3
2014-11-15 18:19:05.436,49095,1636.5,40.10475,-88.22184,232.7309,1.54,169.4531,16,30,1416097145,-0.2689362,-0.5947266,0.7564087,-3.894409,-34.02646,-8.298279,190.1944,193.2767,15,-0.07041771,-0.1020225,-0.006642456,0.5299489,-2.810715,0.6378028,-0.01254196,-0.041062,0.007021841,-0.0187498,0.01076062,-0.0006415852,172.17.160.76,10.64.29.0,1,unknown,2,2014-11-15 18:18:58.289,134,2014-11-15 18:16:20.024,3
2014-11-15 18:19:05.469,49096,1636.533,40.10475,-88.22184,232.7309,1.54,169.4531,16,30,1416097145,-0.2555542,-0.6063538,0.7674713,-3.963135,-34.23293,-8.432068,190.1733,193.2556,15,-0.08211724,-0.1084721,-0.01724743,0.5291252,-2.811238,0.6382616,-0.01465779,-0.03897381,0.001734291,0.0008908603,-0.007379743,0.0008539392,172.17.160.76,10.64.29.0,1,unknown,2,2014-11-15 18:18:58.289,134,2014-11-15 18:16:20.024,3
2014-11-15 18:19:05.503,49097,1636.567,40.10475,-88.22184,232.7309,1.54,169.4531,16,30,1416097145,-0.2549896,-0.6076813,0.7649078,-4.169323,-34.09528,-8.298279,190.1357,193.218,15,-0.07894941,-0.1190438,-0.009884588,0.5291643,-2.813009,0.6389884,-0.01361386,-0.05382869,0.004834959,0.001159867,-0.01146536,0.01073726,172.17.160.76,10.64.29.0,1,unknown,2,2014-11-15 18:18:58.289,134,2014-11-15 18:16:20.024,3
2014-11-15 18:19:05.536,49098,1636.6,40.10475,-88.22184,232.7309,1.54,169.4531,16,30,1416097145,-0.2557983,-0.593399,0.757431,-4.169323,-34.1641,-8.298279,190.1211,193.2034,15,-0.1130299,-0.1084647,-0.01819312,0.5288873,-2.814526,0.6399096,-0.03599491,-0.04319292,0.00497325,0.003126017,-0.007247149,0.002488604,172.17.160.76,10.64.29.0,1,unknown,2,2014-11-15 18:18:58.289,134,2014-11-15 18:16:20.024,3
2014-11-15 18:19:05.570,49099,1636.633,40.10475,-88.22184,232.7309,1.54,169.4531,16,30,1416097145,-0.2555084,-0.5898895,0.7600708,-4.753513,-34.19852,-8.331726,190.114,193.1963,15,-0.09279066,-0.12121,-0.01621306,0.5284878,-2.815744,0.6412984,-0.04130401,-0.05708456,-0.005695056,0.0007142071,0.004837335,-0.001722804,172.17.160.76,10.64.29.0,1,unknown,2,2014-11-15 18:18:58.289,134,2014-11-15 18:16:20.024,3
2014-11-15 18:19:05.603,49100,1636.667,40.10475,-88.22184,232.7309,1.54,169.4531,16,30,1416097145,-0.2491913,-0.6182709,0.7495728,-5.097157,-34.1297,-8.131042,190.1292,193.2115,15,-0.1034793,-0.107295,-0.003361975,0.528163,-2.817195,0.6417979,-0.03386529,-0.04424986,0.006021837,-0.0001930197,0.008747049,0.000828879,172.17.160.76,10.64.29.0,1,unknown,2,2014-11-15 18:18:58.289,134,2014-11-15 18:16:20.024,3
2014-11-15 18:19:05.635,49101,1636.7,40.10475,-88.22184,232.7309,1.54,169.4531,16,30,1416097145,-0.2453156,-0.5994873,0.7493286,-4.4786,-33.44145,-8.398621,190.1254,193.2077,15,-0.1407563,-0.06903873,-0.005143896,0.5265338,-2.817048,0.644627,-0.06903864,-0.002741874,0.01273942,0.005695041,-0.01737057,-0.008023306,172.17.160.76,10.64.29.0,1,unknown,2,2014-11-15 18:18:58.289,134,2014-11-15 18:16:20.024,3
2014-11-15 18:19:05.670,49102,1636.733,40.10475,-88.22184,232.7309,1.54,169.4531,16,30,1416097145,-0.2485504,-0.6114197,0.7502136,-4.581696,-33.68233,-8.231384,190.1229,193.2052,15,-0.135426,-0.09459175,-0.01166731,0.5259674,-2.816972,0.6463432,-0.07756235,-0.002755455,0.0106464,0.01119081,-0.0004967049,-0.002508904,172.17.160.76,10.64.29.0,1,unknown,2,2014-11-15 18:18:58.289,134,2014-11-15 18:16:20.024,3
2014-11-15 18:19:05.703,49103,1636.767,40.10475,-88.22184,232.7309,1.54,169.4531,16,30,1416097145,-0.2556915,-0.5985413,0.7570343,-4.650425,-33.95764,-8.432129,190.1203,193.2026,15,-0.1631237,-0.08504645,-0.01575926,0.5247364,-2.817906,0.6507682,-0.08820548,-0.02090507,-0.001089057,0.003805191,-0.01822567,0.008820924,172.17.160.76,10.64.29.0,1,unknown,2,2014-11-15 18:18:58.289,134,2014-11-15 18:16:20.024,3
2014-11-15 18:19:05.736,49104,1636.8,40.10475,-88.22184,232.7309,1.54,169.4531,16,30,1416097145,-0.2583923,-0.6025848,0.7593231,-5.337708,-34.30175,-8.365234,190.1398,193.2221,15,-0.1396543,-0.08509812,-0.02115482,0.5237233,-2.817916,0.6529948,-0.084994,-0.02306456,-0.00535748,-0.00706896,0.008385614,0.01055683,172.17.160.76,10.64.29.0,1,unknown,2,2014-11-15 18:18:58.289,134,2014-11-15 18:16:20.024,3
2014-11-15 18:19:05.769,49105,1636.833,40.10475,-88.22184,232.7309,1.54,169.4531,16,30,1416097145,-0.2605896,-0.6014862,0.7623444,-4.994064,-34.09528,-8.632812,190.1468,193.2291,15,-0.1322254,-0.09140555,-0.01166251,0.5225435,-2.817698,0.6550899,-0.07007755,-0.02091429,-0.00115387,-0.005784648,0.008461445,0.005976169,172.17.160.76,10.64.29.0,1,unknown,2,2014-11-15 18:18:58.289,134,2014-11-15 18:16:20.024,3
2014-11-15 18:19:05.803,49106,1636.867,40.10475,-88.22184,232.7309,1.54,169.4531,16,30,1416097145,-0.2698975,-0.6158295,0.7498932,-4.444237,-33.61351,-8.766663,190.1461,193.2284,15,-0.1024747,-0.08691439,0.02221715,0.5212185,-2.817361,0.6561176,-0.05308571,-0.02181696,0.021071,-0.01145303,0.002073965,0.008104733,172.17.160.76,10.64.29.0,1,unknown,2,2014-11-15 18:18:58.289,134,2014-11-15 18:16:20.024,3
2014-11-15 18:19:05.836,49107,1636.9,40.10475,-88.22184,232.7309,1.54,169.4531,16,30,1416097145,-0.2652588,-0.6196136,0.7476196,-3.963139,-33.40705,-8.967285,190.1332,193.2155,15,-0.09299918,-0.05787741,0.06903979,0.518352,-2.81539,0.6566182,-0.0233748,-0.004451257,0.07094298,-0.01982111,-0.009004024,-0.002077824,172.17.160.76,10.64.29.0,1,unknown,2,2014-11-15 18:18:58.289,134,2014-11-15 18:16:20.024,3
2014-11-15 18:19:05.869,49108,1636.933,40.10475,-88.22184,232.7309,1.54,169.4531,16,30,1416097145,-0.2589874,-0.6123962,0.7547302,-3.756954,-33.47587,-8.900391,190.1187,193.201,15,-0.1089789,-0.05576819,0.06592628,0.5144594,-2.812262,0.6569332,-0.03939915,0.009477351,0.08487691,-0.009160523,-0.00892242,-0.001693324,172.17.160.76,10.64.29.0,1,unknown,2,2014-11-15 18:18:58.289,134,2014-11-15 18:16:20.024,3
2014-11-15 18:19:05.903,49109,1636.967,40.10475,-88.22184,232.7309,1.54,169.4531,16,30,1416097145,-0.2504272,-0.6177979,0.7534637,-3.997501,-33.5791,-9.201477,190.0964,193.1787,15,-0.1036279,-0.01536804,0.06930344,0.5108405,-2.809305,0.6575687,-0.04364397,0.03710745,0.08503827,-0.0008014015,-0.001201922,0.006544765,172.17.160.76,10.64.29.0,1,unknown,2,2014-11-15 18:18:58.289,134,2014-11-15 18:16:20.024,3
2014-11-15 18:19:05.936,49110,1637,40.10475,-88.22184,232.7309,1.54,169.4531,16,30,1416097145,-0.2326202,-0.6318817,0.7481995,-4.272415,-33.30381,-9.201477,190.0884,193.1707,15,-0.0749528,0.01043959,0.1117912,0.5065169,-2.804672,0.6574534,-0.004237936,0.0680518,0.1052196,0.01379358,-0.01536177,0.004218631,172.17.160.76,10.64.29.0,1,unknown,2,2014-11-15 18:18:58.289,134,2014-11-15 18:16:20.024,3
2014-11-15 18:19:05.970,49111,1637.033,40.10475,-88.22184,232.7309,1.54,169.4531,16,30,1416097145,-0.2474518,-0.5791779,0.7314301,-4.375507,-33.20057,-9.234924,190.0924,193.1747,15,-0.09834228,0.03584189,0.09715185,0.5027593,-2.80091,0.6577595,-0.02029435,0.0905613,0.130868,0.03179899,-0.02053639,0.00231786,172.17.160.76,10.64.29.0,1,unknown,2,2014-11-15 18:18:58.289,134,2014-11-15 18:16:20.024,3
2014-11-15 18:19:06.003,49112,1637.067,40.10475,-88.22184,232.7309,1.54,169.4531,16,30,1416097145,-0.2682495,-0.5747681,0.7113037,-4.547333,-33.16616,-8.933899,190.1122,193.1945,15,-0.07792968,0.02798609,0.04289846,0.4987659,-2.796043,0.6571232,-0.02757123,0.09329593,0.07146145,0.01117394,0.03624145,-0.02029664,172.17.160.76,10.64.29.0,1,unknown,2,2014-11-15 18:18:58.289,134,2014-11-15 18:16:20.024,3
2014-11-15 18:19:06.037,49113,1637.1,40.10475,-88.22184,232.7309,1.54,169.4531,16,30,1416097145,-0.250061,-0.5326538,0.6378632,-4.512962,-33.26939,-9.167908,190.1336,193.2159,15,-0.01730708,0.06344502,0.09911673,0.4955201,-2.789707,0.6559269,0.04379935,0.1188636,0.09261665,0.009197304,0.03494288,-0.06240462,172.17.160.76,10.64.29.0,1,unknown,2,2014-11-15 18:18:58.289,134,2014-11-15 18:16:20.024,3
2014-11-15 18:19:06.070,49114,1637.133,40.10475,-88.22186,232.0125,1.14,176.4844,12,30,1416097146,-0.2653046,-0.4780731,0.6080475,-4.787876,-33.33821,-9.368591,190.1531,193.2354,15,-0.03334517,0.08592743,0.1205248,0.4944137,-2.787763,0.6551206,0.04587223,0.1296562,0.1149568,0.01520786,0.04608349,-0.08166614,172.17.160.76,10.64.29.0,1,unknown,2,2014-11-15 18:18:58.289,134,2014-11-15 18:16:20.024,3
2014-11-15 18:19:06.103,49115,1637.167,40.10475,-88.22186,232.0125,1.14,176.4844,12,30,1416097146,-0.3013916,-0.5115356,0.570694,-5.131523,-33.20057,-9.63623,190.2149,193.2972,15,0.02013696,0.09822857,0.06413078,0.48799,-2.776129,0.6511587,0.05981511,0.1613748,0.09490332,-0.00552452,0.1248462,-0.1583353,172.17.160.76,10.64.29.0,1,unknown,2,2014-11-15 18:18:58.289,134,2014-11-15 18:16:20.024,3
2014-11-15 18:19:06.136,49116,1637.2,40.10475,-88.22186,232.0125,1.14,176.4844,12,30,1416097146,-0.2138824,-0.4748535,0.5219574,-4.994064,-33.33821,-9.970642,190.247,193.3293,15,0.06052113,0.1219451,0.1118711,0.4868672,-2.772118,0.648955,0.09824667,0.1729321,0.07995947,-0.01367746,0.09281854,-0.1722573,172.17.160.76,10.64.29.0,1,unknown,2,2014-11-15 18:18:58.289,134,2014-11-15 18:16:20.024,3
2014-11-15 18:19:06.169,49117,1637.233,40.10475,-88.22186,232.0125,1.14,176.4844,12,30,1416097146,-0.1421356,-0.4216156,0.5093842,-5.165886,-33.78557,-9.067627,191.5137,194.596,15,0.04530223,0.07584523,0.1976654,0.4826886,-2.762411,0.6423259,0.1288081,0.1663489,0.1955118,0.08250671,0.1242059,-0.2218714,172.17.160.76,10.64.29.0,1,unknown,2,2014-11-15 18:18:58.289,134,2014-11-15 18:16:20.024,3
2014-11-15 18:19:06.203,49118,1637.267,40.10475,-88.22186,232.0125,1.14,176.4844,12,30,1416097146,-0.1875458,-0.4624634,0.5812836,-5.303341,-33.78557,-9.26825,192.1508,195.2331,15,-0.02508751,-0.05286215,0.1749601,0.4746175,-2.753599,0.6362997,0.04770521,0.0410209,0.1909642,0.1622484,0.1744693,-0.2253666,172.17.160.76,10.64.29.0,1,unknown,2,2014-11-15 18:18:58.289,134,2014-11-15 18:16:20.024,3
2014-11-15 18:19:06.236,49119,1637.3,40.10475,-88.22186,232.0125,1.14,176.4844,12,30,1416097146,-0.1886292,-0.4952698,0.584137,-6.059361,-33.44144,-9.26825,192.2123,195.2946,15,-0.07408807,0.03649276,0.1851675,0.4685547,-2.749453,0.6329764,0.03806951,0.03367497,0.2026378,0.1205835,0.1290838,-0.1637857,172.17.160.76,10.64.29.0,1,unknown,2,2014-11-15 18:18:58.289,134,2014-11-15 18:16:20.024,3
2014-11-15 18:19:06.270,49120,1637.333,40.10475,-88.22186,232.0125,1.14,176.4844,12,30,1416097146,-0.1863861,-0.4662323,0.6195374,-6.506096,-33.06291,-9.769958,192.2725,195.3548,15,-0.108907,-0.002718022,0.05559056,0.4617177,-2.742744,0.6308158,-0.04278791,0.1152797,0.1694028,0.124988,0.09453397,-0.1600242,172.17.160.76,10.64.29.0,1,unknown,2,2014-11-15 18:18:58.289,134,2014-11-15 18:16:20.024,3
2014-11-15 18:19:06.303,49121,1637.367,40.10475,-88.22186,232.0125,1.14,176.4844,12,30,1416097146,-0.2342224,-0.5356598,0.6374969,-6.746647,-33.16615,-9.937195,192.3448,195.4271,15,-0.07646255,-0.1454821,-0.1342265,0.4582219,-2.738603,0.6310931,-0.02746718,0.0120796,0.01170255,0.1302455,0.1237954,-0.1231683,172.17.160.76,10.64.29.0,1,unknown,2,2014-11-15 18:18:58.289,134,2014-11-15 18:16:20.024,3
2014-11-15 18:19:06.336,49122,1637.4,40.10475,-88.22186,232.0125,1.14,176.4844,12,30,1416097146,-0.3146515,-0.5926666,0.6496277,-7.159008,-33.51027,-10.00415,194.9121,197.9944,15,-0.09546553,-0.1235813,-0.1902986,0.4633134,-2.744478,0.6335278,-0.01843824,-0.09244362,-0.18101,0.04812551,0.02045847,-0.1022198,172.17.160.76,10.64.29.0,1,unknown,2,2014-11-15 18:18:58.289,134,2014-11-15 18:16:20.024,3
2014-11-15 18:19:06.369,49123,1637.433,40.10475,-88.22186,232.0125,1.14,176.4844,12,30,1416097146,-0.3201599,-0.5202179,0.658371,-7.090282,-33.23497,-10.73993,195.8927,198.975,15,-0.1691374,0.08327119,-0.09976894,0.4686667,-2.747137,0.6378686,-0.09102692,0.1122347,-0.09686493,-0.0117269,0.02558404,-0.08784917,172.17.160.76,10.64.29.0,1,unknown,2,2014-11-15 18:18:58.289,134,2014-11-15 18:16:20.024,3
2014-11-15 18:19:06.403,49124,1637.467,40.10475,-88.22186,232.0125,1.14,176.4844,12,30,1416097146,-0.3451691,-0.5454865,0.7069702,-6.918461,-32.71879,-11.04095,195.9751,199.0574,15,-0.1179639,0.01829911,-0.1172864,0.4701891,-2.74388,0.64175,-0.09209576,0.1175638,-0.09470999,-0.01880099,0.08573508,-0.06935279,172.17.160.76,10.64.29.0,1,unknown,2,2014-11-15 18:18:58.289,134,2014-11-15 18:16:20.024,3
2014-11-15 18:19:06.436,49125,1637.5,40.10475,-88.22186,232.0125,1.14,176.4844,12,30,1416097146,-0.347229,-0.6645203,0.7680664,-6.540451,-32.89085,-11.40887,195.6104,198.6927,15,-0.01162283,0.04871774,-0.02199105,0.4728413,-2.743079,0.643329,0.03141221,0.08169277,-0.05290218,-0.03490358,0.01807521,-0.002680264,172.17.160.76,10.64.29.0,1,unknown,2,2014-11-15 18:18:58.289,134,2014-11-15 18:16:20.024,3
2014-11-15 18:19:06.470,49126,1637.533,40.10475,-88.22186,232.0125,1.14,176.4844,12,30,1416097146,-0.3302002,-0.5998077,0.7636566,-6.677914,-33.09732,-11.87708,195.7914,198.8737,15,-0.03211053,0.08869924,0.06533772,0.4731795,-2.740779,0.6424111,0.04397469,0.1503957,0.04082292,-0.03735753,-0.0481044,0.03289907,172.17.160.76,10.64.29.0,1,unknown,2,2014-11-15 18:18:58.289,134,2014-11-15 18:16:20.024,3
2014-11-15 18:19:06.503,49127,1637.567,40.10475,-88.22186,232.0125,1.14,176.4844,12,30,1416097146,-0.3940582,-0.6485138,0.765625,-7.227737,-33.37262,-12.01093,196.0105,199.0928,15,0.07658798,-0.06242822,0.03972078,0.4693412,-2.733715,0.6385643,0.08968375,0.01443112,0.04948896,0.0008892089,0.08745254,0.01044624,172.17.160.76,10.64.29.0,1,unknown,2,2014-11-15 18:18:58.289,134,2014-11-15 18:16:20.024,3
2014-11-15 18:19:06.536,49128,1637.6,40.10475,-88.22186,232.0125,1.14,176.4844,12,30,1416097146,-0.36763,-0.6651154,0.7766724,-7.640106,-33.16615,-11.94403,196.0494,199.1317,15,-0.05583078,0.1511248,0.1697805,0.4692098,-2.733219,0.6344212,0.1141046,0.06682948,0.09531707,-0.07421388,-0.05580235,0.02644117,172.17.160.76,10.64.29.0,1,unknown,2,2014-11-15 18:18:58.289,134,2014-11-15 18:16:20.024,3
2014-11-15 18:19:06.569,49129,1637.633,40.10475,-88.22186,232.0125,1.14,176.4844,12,30,1416097146,-0.2997589,-0.4986572,0.7258911,-7.811932,-33.40704,-12.24512,196.1397,199.222,15,-0.1805426,0.1106884,0.1541123,0.4608884,-2.720229,0.6317288,-0.09930596,0.2303124,0.2031252,-0.01581562,-0.03368096,0.01612788,172.17.160.76,10.64.29.0,1,unknown,2,2014-11-15 18:18:58.289,134,2014-11-15 18:16:20.024,3
2014-11-15 18:19:06.603,49130,1637.667,40.10475,-88.22186,232.0125,1.14,176.4844,12,30,1416097146,-0.3439331,-0.6039734,0.8141174,-8.155575,-33.33821,-12.37891,198.2858,201.3681,15,-0.03433613,0.006959905,0.07553045,0.4547422,-2.712433,0.6325737,-0.04366178,0.08284633,0.09599194,0.02487897,0.07584155,0.02297672,172.17.160.76,10.64.29.0,1,unknown,2,2014-11-15 18:18:58.289,134,2014-11-15 18:16:20.024,3
2014-11-15 18:19:06.636,49131,1637.7,40.10475,-88.22186,232.0125,1.14,176.4844,12,30,1416097146,-0.3387451,-0.6464691,0.8112793,-8.155575,-33.33821,-12.37891,198.2858,201.3681,15,0.01359677,0.03045698,0.09458137,0.4547422,-2.712433,0.6325737,-0.04366178,0.08284633,0.09599194,0.02487897,0.07584155,0.02297672,172.17.160.76,10.64.29.0,1,unknown,2,2014-11-15 18:18:58.289,134,2014-11-15 18:16:20.024,3
2014-11-15 18:19:06.669,49132,1637.733,40.10475,-88.22186,232.0125,1.14,176.4844,12,30,1416097146,-0.3385468,-0.5169373,0.7469177,-9.186501,-32.51233,-12.914,200.3582,203.4405,15,-0.04594139,-0.1253481,0.001634915,0.446683,-2.700837,0.6288881,-0.04145224,-0.004648488,0.04775602,0.02160763,0.03209365,0.03132991,172.17.160.76,10.64.29.0,1,unknown,2,2014-11-15 18:18:58.289,134,2014-11-15 18:16:20.024,3
2014-11-15 18:19:06.703,49133,1637.767,40.10475,-88.22186,232.0125,1.14,176.4844,12,30,1416097146,-0.3429565,-0.6662903,0.7510376,-9.530144,-32.64998,-13.24847,200.9579,204.0402,15,0.07760531,-0.1740898,0.02745266,0.4466315,-2.702137,0.6280342,0.09395593,-0.09525323,0.01811177,0.005718101,0.07061793,0.01461955,172.17.160.76,10.64.29.0,1,unknown,2,2014-11-15 18:18:58.289,134,2014-11-15 18:16:20.024,3
2014-11-15 18:19:06.736,49134,1637.8,40.10475,-88.22186,232.0125,1.14,176.4844,12,30,1416097146,-0.3221283,-0.5978851,0.8042908,-9.56451,-32.82204,-13.75018,201.5514,204.6337,15,-0.1482188,0.07149202,0.03065298,0.4455098,-2.702791,0.623733,-0.02014445,0.09331516,0.07685194,0.01264164,-0.09572496,0.04647623,172.17.160.76,10.64.29.0,1,unknown,2,2014-11-15 18:18:58.289,134,2014-11-15 18:16:20.024,3
2014-11-15 18:19:06.770,49135,1637.833,40.10475,-88.22186,232.0125,1.14,176.4844,12,30,1416097146,-0.3181763,-0.6636505,0.786972,-9.873787,-33.06292,-13.78369,201.9181,205.0004,15,-0.1030023,-0.120198,-0.164777,0.4444215,-2.699238,0.6272985,-0.06445224,-0.03026031,-0.1093924,0.02967687,-0.01210031,0.05705462,172.17.160.76,10.64.29.0,1,unknown,2,2014-11-15 18:18:58.289,134,2014-11-15 18:16:20.024,3
2014-11-15 18:19:06.803,49136,1637.867,40.10475,-88.22186,232.0125,1.14,176.4844,12,30,1416097146,-0.4583435,-0.6626587,0.906189,-10.80162,-33.09734,-13.81708,203.0489,206.1312,15,-0.2170727,0.01826076,-0.1285918,0.4489351,-2.702813,0.6307914,-0.08129151,0.008592688,-0.1717522,0.003862365,-0.0918413,0.07875322,172.17.160.76,10.64.29.0,1,unknown,2,2014-11-15 18:18:58.289,134,2014-11-15 18:16:20.024,3
2014-11-15 18:19:06.836,49137,1637.9,40.10475,-88.22186,232.0125,1.14,176.4844,12,30,1416097146,-0.4741364,-0.5969543,0.8876038,-11.04216,-33.13176,-13.91748,203.3524,206.4348,15,-0.2446793,0.09784187,-0.1450531,0.4508692,-2.701705,0.6363167,-0.1901694,0.1175832,-0.09752844,-0.1158464,-0.06842164,0.1784678,172.17.160.76,10.64.29.0,1,unknown,2,2014-11-15 18:18:58.289,134,2014-11-15 18:16:20.024,3
2014-11-15 18:19:06.869,49138,1637.933,40.10475,-88.22186,232.0125,1.14,176.4844,12,30,1416097146,-0.4780731,-0.6235809,0.8644104,-11.07653,-33.51029,-14.41913,203.6863,206.7686,15,-0.1774973,0.09456459,-0.1527523,0.4509601,-2.700339,0.6386064,-0.2050385,0.1493887,-0.1079201,-0.1295492,-0.03072348,0.1836627,172.17.160.76,10.64.29.0,1,unknown,2,2014-11-15 18:18:58.289,134,2014-11-15 18:16:20.024,3
2014-11-15 18:19:06.902,49139,1637.967,40.10475,-88.22186,232.0125,1.14,176.4844,12,30,1416097146,-0.489212,-0.711853,0.8309631,-10.28616,-33.68234,-14.58636,202.5568,205.6391,20,0.02655731,0.04493552,0.04259646,0.4562145,-2.695108,0.6425981,0.09734321,0.108666,0.006434475,-0.1226055,-0.0783197,0.1134452,172.17.160.76,10.64.29.0,1,unknown,2,2014-11-15 18:18:58.289,134,2014-11-15 18:16:20.024,3
2014-11-15 18:19:06.936,49140,1638,40.10475,-88.22186,232.0125,1.14,176.4844,12,30,1416097146,-0.437149,-0.6586914,0.8651581,-10.25179,-33.64793,-14.68671,202.5523,205.6346,20,-0.09820806,0.0567983,0.05798687,0.4533864,-2.688745,0.6393266,-0.01060054,0.1274945,0.1014096,-0.1358232,-0.1086671,0.1216519,172.17.160.76,10.64.29.0,1,unknown,2,2014-11-15 18:18:58.289,134,2014-11-15 18:16:20.024,3
2014-11-15 18:19:06.970,49141,1638.033,40.10475,-88.22186,232.0125,1.14,176.4844,12,30,1416097146,-0.3660431,-0.6704254,0.8563538,-10.49234,-33.54469,-14.78699,202.5571,205.6394,20,-0.09701177,0.008565258,0.002531335,0.4515187,-2.685272,0.6394035,-0.0456187,0.1047498,0.0419779,-0.08354991,-0.06197452,0.1448133,172.17.160.76,10.64.29.0,1,unknown,2,2014-11-15 18:18:58.289,134,2014-11-15 18:16:20.024,3
2014-11-15 18:19:07.003,49142,1638.067,40.10475,-88.22186,232.0125,1.14,176.4844,12,30,1416097146,-0.3412323,-0.699707,0.8347473,-11.17962,-33.47587,-15.52283,203.7061,206.7884,20,-0.02768729,-0.07032556,-0.02786519,0.4510252,-2.683098,0.6392144,0.04076869,0.008800361,0.005058635,0.006154135,-0.09203351,0.1301627,172.17.160.76,10.64.29.0,1,unknown,2,2014-11-15 18:18:58.289,134,2014-11-15 18:16:20.024,3
2014-11-15 18:19:07.036,49143,1638.1,40.10475,-88.22186,232.0125,1.14,176.4844,12,30,1416097146,-0.45047,-0.7445679,0.830307,-11.42017,-33.57911,-15.69006,204.3483,207.4306,20,-0.2019504,-0.2643587,-0.2660064,0.4544605,-2.686851,0.6410397,-0.07920236,-0.1211927,-0.1915509,-0.01422509,-0.1062862,0.1079939,172.17.160.76,10.64.29.0,1,unknown,2,2014-11-15 18:18:58.289,134,2014-11-15 18:16:20.024,3
2014-11-15 18:19:07.069,49144,1638.133,40.10475,-88.22186,231.865,1.1,188.0859,16,30,1416097147,-0.4564056,-0.8013,0.9021454,-10.97343,-33.61353,-15.8573,203.8532,206.9355,20,-0.2010562,-0.1393717,-0.1772486,0.4585589,-2.69294,0.6453017,-0.1387839,-0.1981099,-0.2501144,-0.08597837,-0.1243296,0.09760766,172.17.160.76,10.64.29.0,1,unknown,2,2014-11-15 18:18:58.289,134,2014-11-15 18:16:20.024,3
2014-11-15 18:19:07.102,49145,1638.167,40.10475,-88.22186,231.865,1.1,188.0859,16,30,1416097147,-0.4253387,-0.8643494,1.020477,-10.59542,-33.37264,-15.95764,203.4017,206.484,20,-0.1864524,-0.008695221,-0.03756096,0.4621778,-2.69791,0.6512763,-0.1241758,0.007076169,-0.0930509,-0.1150039,-0.1950981,0.183839,172.17.160.76,10.64.29.0,1,unknown,2,2014-11-15 18:18:58.289,134,2014-11-15 18:16:20.024,3
2014-11-15 18:19:07.136,49146,1638.2,40.10475,-88.22186,231.865,1.1,188.0859,16,30,1416097147,-0.4700775,-0.7820435,1.035461,-10.32052,-33.09735,-15.42255,202.9509,206.0332,20,-0.1884799,-0.1846146,-0.1170294,0.4611222,-2.696251,0.6566517,-0.1520346,-0.0479181,-0.06033036,-0.0830101,-0.2452293,0.330134,172.17.160.76,10.64.29.0,1,unknown,2,2014-11-15 18:18:58.289,134,2014-11-15 18:16:20.024,3
2014-11-15 18:19:07.169,49147,1638.233,40.10475,-88.22186,231.865,1.1,188.0859,16,30,1416097147,-0.5953979,-0.8609772,1.013962,-10.59544,-33.44146,-15.4895,203.1324,206.2147,20,-0.03607278,-0.00786751,-0.05934934,0.4622196,-2.699952,0.6612443,-0.07736584,-0.09491004,-0.08739458,-0.1619024,-0.1783658,0.3084844,172.17.160.76,10.64.29.0,1,unknown,2,2014-11-15 18:18:58.289,134,2014-11-15 18:16:20.024,3
2014-11-15 18:19:07.203,49148,1638.267,40.10475,-88.22186,231.865,1.1,188.0859,16,30,1416097147,-0.5968323,-0.8304596,0.9374847,-10.45798,-34.26735,-15.5564,202.6523,205.7346,20,-0.05194629,0.2420276,-0.03462136,0.465454,-2.696095,0.6614509,0.01766418,0.2847261,-0.04116918,-0.2797517,-0.2438309,0.2621607,172.17.160.76,10.64.29.0,1,unknown,2,2014-11-15 18:18:58.289,134,2014-11-15 18:16:20.024,3
2014-11-15 18:19:07.236,49149,1638.3,40.10475,-88.22186,231.865,1.1,188.0859,16,30,1416097147,-0.4812927,-0.7267761,1.111679,-10.76726,-34.16412,-15.79053,203.0295,206.1118,20,0.03079999,-0.06040795,0.02291916,0.4657219,-2.688042,0.6607484,0.04719799,0.1843629,0.03780277,-0.1640832,-0.1726538,0.2066575,172.17.160.76,10.64.29.0,1,unknown,2,2014-11-15 18:18:58.289,134,2014-11-15 18:16:20.024,3
2014-11-15 18:19:07.269,49150,1638.333,40.10475,-88.22186,231.865,1.1,188.0859,16,30,1416097147,-0.4552612,-0.8572845,0.7657013,-10.80163,-33.44146,-15.82397,203.4991,206.5814,20,0.1339844,-0.2259777,0.05456684,0.4657217,-2.68751,0.6598328,0.09396403,0.005838275,0.03881048,-0.1362075,-0.1327275,0.2955856,172.17.160.76,10.64.29.0,1,unknown,2,2014-11-15 18:18:58.289,134,2014-11-15 18:16:20.024,3
2014-11-15 18:19:07.303,49151,1638.367,40.10475,-88.22186,231.865,1.1,188.0859,16,30,1416097147,-0.3753204,-0.4894104,0.817276,-11.00782,-32.75322,-17.6969,204.4312,207.5135,20,-0.05343553,-0.1204713,0.3668385,0.4600053,-2.691651,0.6506446,0.01399969,-0.1828471,0.3555914,0.1014283,-0.3014356,-0.1869898,172.17.160.76,10.64.29.0,1,unknown,2,2014-11-15 18:18:58.289,134,2014-11-15 18:16:20.024,3
2014-11-15 18:19:07.336,49152,1638.4,40.10475,-88.22186,231.865,1.1,188.0859,16,30,1416097147,-0.4843445,-0.4443054,0.7103577,-11.17963,-32.64999,-17.73035,204.7151,207.7974,20,-0.06685972,-0.01509107,0.2496192,0.4478071,-2.68416,0.6457769,-0.01557317,0.07091345,0.3283783,-0.02260779,0.1124086,0.1007513,172.17.160.76,10.64.29.0,1,unknown,2,2014-11-15 18:18:58.289,134,2014-11-15 18:16:20.024,3
2014-11-15 18:19:07.369,49153,1638.433,40.10475,-88.22186,231.865,1.1,188.0859,16,30,1416097147,-0.468811,-0.6773529,0.8631592,-11.17963,-32.99411,-17.39587,204.6879,207.7702,20,-0.01986692,0.4227497,-0.02105202,0.4421389,-2.675064,0.6405818,0.1336701,0.3066565,0.03609177,-0.1426787,0.05971345,0.05042543,172.17.160.76,10.64.29.0,1,unknown,2,2014-11-15 18:18:58.289,134,2014-11-15 18:16:20.024,3
2014-11-15 18:19:07.402,49154,1638.467,40.10475,-88.22186,231.865,1.1,188.0859,16,30,1416097147,-0.4274445,-0.5992432,0.7833405,-10.87035,-32.82206,-17.09485,204.6259,207.7083,20,-0.02969638,0.3147526,0.02936721,0.4430967,-2.661879,0.6389974,0.006061734,0.5230992,-0.01430332,-0.09834756,-0.08096191,0.1510675,172.17.160.76,10.64.29.0,1,unknown,2,2014-11-15 18:18:58.289,134,2014-11-15 18:16:20.024,3
2014-11-15 18:19:07.436,49155,1638.5,40.10475,-88.22186,231.865,1.1,188.0859,16,30,1416097147,-0.3679962,-0.6192322,0.7268524,-10.21743,-32.44352,-16.92761,204.2201,207.3024,20,0.1484611,0.01254083,0.2638191,0.4422914,-2.649471,0.6374943,0.09605196,0.2542074,0.1240593,-0.04775108,-0.004059372,0.07511084,172.17.160.76,10.64.29.0,1,unknown,2,2014-11-15 18:18:58.289,134,2014-11-15 18:16:20.024,3
2014-11-15 18:19:07.469,49156,1638.533,40.10475,-88.22186,231.865,1.1,188.0859,16,30,1416097147,-0.4462433,-0.7151794,0.7156525,-10.01124,-32.51235,-16.39252,203.9973,207.0796,20,0.1397704,-0.1265119,0.2822261,0.4394105,-2.645087,0.6322587,0.211647,0.07893969,0.2798027,0.006176716,-0.0151871,0.03244152,172.17.160.76,10.64.29.0,1,unknown,2,2014-11-15 18:18:58.289,134,2014-11-15 18:16:20.024,3
2014-11-15 18:19:07.503,49157,1638.567,40.10475,-88.22186,231.865,1.1,188.0859,16,30,1416097147,-0.38237,-0.6464844,0.7328644,-10.11434,-32.75323,-15.95776,203.9164,206.9987,20,-0.08235213,-0.1185309,0.0580657,0.4321054,-2.643352,0.6211452,0.07429365,-0.1428522,0.1676933,-0.05762457,-0.1332126,0.001306534,172.17.160.76,10.64.29.0,1,unknown,2,2014-11-15 18:18:58.289,134,2014-11-15 18:16:20.024,3
2014-11-15 18:19:07.536,49158,1638.6,40.10475,-88.22186,231.865,1.1,188.0859,16,30,1416097147,-0.2851257,-0.5740814,0.7247009,-9.839424,-33.44146,-15.08813,203.0323,206.1146,20,-0.08051721,-0.04113785,0.1762909,0.4274363,-2.642588,0.619446,-0.01932948,0.01321281,0.1444515,0.02449443,-0.04263049,0.02888902,172.17.160.76,10.64.29.0,1,unknown,2,2014-11-15 18:18:58.289,134,2014-11-15 18:16:20.024,3
2014-11-15 18:19:07.570,49159,1638.633,40.10475,-88.22186,231.865,1.1,188.0859,16,30,1416097147,-0.2831421,-0.5681458,0.7638245,-9.701965,-33.37264,-14.82056,202.8901,205.9724,20,-0.03100931,-0.09024175,0.008132761,0.419753,-2.636822,0.6160445,0.02554055,0.02572541,0.1156893,0.1300416,0.02280341,0.01059351,172.17.160.76,10.64.29.0,1,unknown,2,2014-11-15 18:18:58.289,134,2014-11-15 18:16:20.024,3
2014-11-15 18:19:07.603,49160,1638.667,40.10475,-88.22186,231.865,1.1,188.0859,16,30,1416097147,-0.499054,-0.6904755,0.7897186,-10.01124,-32.78764,-14.4527,203.3492,206.4315,20,-0.0720457,-0.219323,-0.2036282,0.4201331,-2.637851,0.6154548,0.03454098,-0.08724242,-0.06963724,0.1109923,0.009184181,0.04873827,172.17.160.76,10.64.29.0,1,unknown,2,2014-11-15 18:18:58.289,134,2014-11-15 18:16:20.024,3
2014-11-15 18:19:07.636,49161,1638.7,40.10475,-88.22186,231.865,1.1,188.0859,16,30,1416097147,-0.5296936,-0.5839386,0.7597809,-9.873779,-32.85646,-14.31891,203.136,206.2183,20,-0.2838184,0.3036307,-0.1937125,0.4271945,-2.645464,0.620014,-0.1216211,0.07328022,-0.2104459,-0.111632,-0.1094289,0.07397486,172.17.160.76,10.64.29.0,1,unknown,2,2014-11-15 18:18:58.289,134,2014-11-15 18:16:20.024,3
2014-11-15 18:19:07.669,49162,1638.733,40.10475,-88.22186,231.865,1.1,188.0859,16,30,1416097147,-0.5014343,-0.5414276,0.712326,-9.564507,-32.82204,-13.95105,202.5248,205.6071,20,-0.2869814,0.3674203,-0.1891188,0.4290364,-2.641163,0.6251526,-0.220635,0.3700269,-0.1777295,-0.1500949,-0.0500634,0.06368949,172.17.160.76,10.64.29.0,1,unknown,2,2014-11-15 18:18:58.289,134,2014-11-15 18:16:20.024,3
2014-11-15 18:19:07.702,49163,1638.767,40.10475,-88.22186,231.865,1.1,188.0859,16,30,1416097147,-0.4300079,-0.5716553,0.6768951,-9.117775,-33.26939,-13.18176,201.8136,204.8959,20,-0.01542423,0.07258392,0.1840764,0.4301791,-2.624056,0.6325004,0.02154396,0.2049699,0.07206549,-0.08498968,0.01564757,-0.003019683,172.17.160.76,10.64.29.0,1,unknown,2,2014-11-15 18:18:58.289,134,2014-11-15 18:16:20.024,3
2014-11-15 18:19:07.736,49164,1638.8,40.10475,-88.22186,231.865,1.1,188.0859,16,30,1416097147,-0.4013824,-0.478363,0.6145325,-9.083412,-33.37263,-13.01459,201.7107,204.793,20,-0.03249163,0.0800706,0.1894871,0.425196,-2.616688,0.6286682,0.03064121,0.1444604,0.2213816,-0.02468764,0.01641282,-0.02302727,172.17.160.76,10.64.29.0,1,unknown,2,2014-11-15 18:18:58.289,134,2014-11-15 18:16:20.024,3
2014-11-15 18:19:07.769,49165,1638.833,40.10475,-88.22186,231.865,1.1,188.0859,16,30,1416097147,-0.3360901,-0.5173035,0.5532837,-9.358322,-33.71675,-12.41254,201.8971,204.9794,20,0.04018204,0.08277477,0.1297862,0.4177889,-2.606548,0.6231975,0.07771041,0.1440289,0.1670674,0.0488875,0.1090252,-0.1292742,172.17.160.76,10.64.29.0,1,unknown,2,2014-11-15 18:18:58.289,134,2014-11-15 18:16:20.024,3
2014-11-15 18:19:07.803,49166,1638.867,40.10475,-88.22186,231.865,1.1,188.0859,16,30,1416097147,-0.2904358,-0.483078,0.5089722,-9.323952,-33.68233,-12.31213,201.9262,205.0085,20,-0.01397867,0.03224449,0.04798883,0.4154101,-2.599483,0.6172968,0.08221783,0.1231897,0.08096062,0.1159918,0.07439268,-0.170224,172.17.160.76,10.64.29.0,1,unknown,2,2014-11-15 18:18:58.289,134,2014-11-15 18:16:20.024,3
2014-11-15 18:19:07.836,49167,1638.9,40.10475,-88.22186,231.865,1.1,188.0859,16,30,1416097147,-0.2823486,-0.4378357,0.4971771,-9.323952,-33.68233,-12.31213,201.9262,205.0085,20,-0.01397867,0.03224449,0.04798883,0.4154101,-2.599483,0.6172968,0.08221783,0.1231897,0.08096062,0.1159918,0.07439268,-0.170224,172.17.160.76,10.64.29.0,1,unknown,2,2014-11-15 18:18:58.289,134,2014-11-15 18:16:20.024,3
2014-11-15 18:19:07.870,49168,1638.933,40.10475,-88.22186,231.865,1.1,188.0859,16,30,1416097147,-0.3158264,-0.4424133,0.5236206,-8.155575,-33.40704,-12.04462,200.6039,203.6862,20,-0.01753106,-0.2942356,-0.2711002,0.4189833,-2.601426,0.6181894,0.02212338,-0.15845,-0.2132667,0.1076994,0.1486676,-0.1863441,172.17.160.76,10.64.29.0,1,unknown,2,2014-11-15 18:18:58.289,134,2014-11-15 18:16:20.024,3
2014-11-15 18:19:07.903,49169,1638.967,40.10475,-88.22186,231.865,1.1,188.0859,16,30,1416097147,-0.307663,-0.4317627,0.541275,-7.880665,-33.47586,-11.71014,200.0296,203.1119,20,0.03573057,-0.3963599,-0.2835137,0.4251056,-2.609807,0.6199039,0.07550939,-0.2864365,-0.2735836,0.09689756,0.1385436,-0.177912,172.17.160.76,10.64.29.0,1,unknown,2,2014-11-15 18:18:58.289,134,2014-11-15 18:16:20.024,3
2014-11-15 18:19:07.936,49170,1639,40.10475,-88.22186,231.865,1.1,188.0859,16,30,1416097147,-0.3203278,-0.3092041,0.482605,-7.708839,-33.78557,-11.14148,199.1393,202.2216,20,0.04191922,-0.6045051,-0.2676493,0.4407016,-2.637802,0.62115,0.09333868,-0.4464675,-0.2171732,0.09638761,0.2169194,-0.19356,172.17.160.76,10.64.29.0,1,unknown,2,2014-11-15 18:18:58.289,134,2014-11-15 18:16:20.024,3
2014-11-15 18:19:07.970,49171,1639.033,40.10475,-88.22186,231.865,1.1,188.0859,16,30,1416097147,-0.3719635,-0.4053955,0.4438019,-7.880657,-34.4394,-10.37225,198.4032,201.4855,20,0.1323604,-0.6403113,-0.2193483,0.4505103,-2.659241,0.6218389,0.1285408,-0.5742933,-0.2572531,0.03708178,0.272106,-0.2543285,172.17.160.76,10.64.29.0,1,unknown,2,2014-11-15 18:18:58.289,134,2014-11-15 18:16:20.024,3
2014-11-15 18:19:08.003,49172,1639.067,40.10475,-88.22186,231.865,1.1,188.0859,16,30,1416097147,-0.3672333,-0.4432983,0.4604797,-7.811932,-34.30175,-10.10468,198.1044,201.1867,20,0.1323604,-0.6403113,-0.2193483,0.4505103,-2.659241,0.6218389,0.1285408,-0.5742933,-0.2572531,0.03708178,0.272106,-0.2543285,172.17.160.76,10.64.29.0,1,unknown,2,2014-11-15 18:18:58.289,134,2014-11-15 18:16:20.024,3
