time,timestamp,recordtime,lat,long,alt,speed,course,verticalAccuracy,horizontalAccuracy,locTimeStamp,accelerationX,accelerationY,accelerationZ,HeadingX,HeadingY,HeadingZ,TrueHeading,MagneticHeading,HeadingAccuracy,RotationX,RotationY,RotationZ,motionYaw,motionRoll,motionPitch,motionRotationRateX,motionRotationRateY,motionRotationRateZ,motionUserAccelerationX,motionUserAccelerationY,motionUserAccelerationZ,en0,pdp_ip0,DeviceOrientation,Activity,Activity Confidence,Activity Start,Steps,Last Step Date,State
2014-11-15 18:19:08.802,49196,1639.867,40.10475,-88.22187,231.9839,0.44,194.7656,16,30,1416097148,-0.3341827,-0.5982513,0.7438049,-5.750072,-33.88879,-9.034363,192.5379,195.6202,15,-0.04925942,-0.03774977,0.06367458,0.4912871,-2.724549,0.6378331,0.01495786,0.009687127,0.0838831,-0.01045656,0.001324465,0.01276933,172.17.160.76,10.64.29.0,1,unknown,2,2014-11-15 18:18:58.289,134,2014-11-15 18:16:20.024,3
2014-11-15 18:19:08.836,49197,1639.9,40.10475,-88.22187,231.9839,0.44,194.7656,16,30,1416097148,-0.3311005,-0.6064301,0.7346191,-5.887527,-34.37056,-9.235107,192.5568,195.6391,15,-0.08429091,-0.05300809,0.01065131,0.4880136,-2.721255,0.6366454,-0.02223708,0.01260687,0.04582564,-0.004485543,-0.005992957,0.00416676,172.17.160.76,10.64.29.0,1,unknown,2,2014-11-15 18:18:58.289,134,2014-11-15 18:16:20.024,3
2014-11-15 18:19:08.870,49198,1639.933,40.10475,-88.22187,231.9839,0.44,194.7656,16,30,1416097148,-0.3290558,-0.6022797,0.7437592,-5.853161,-34.47379,-8.934082,192.5688,195.6511,15,-0.07467557,-0.04667722,0.005341236,0.4868356,-2.72019,0.6378613,-0.02111805,0.01352591,0.02671789,-0.002488835,-0.0109514,0.001530078,172.17.160.76,10.64.29.0,1,unknown,2,2014-11-15 18:18:58.289,134,2014-11-15 18:16:20.024,3
2014-11-15 18:19:08.903,49199,1639.967,40.10475,-88.22187,231.9839,0.44,194.7656,16,30,1416097148,-0.308075,-0.5835114,0.7287598,-5.990623,-34.26732,-8.867126,192.5981,195.6804,15,-0.06720993,-0.09353128,-0.007671236,0.4863196,-2.720067,0.6377568,0.002341824,-0.007797134,0.01908518,0.001227729,-0.005389641,0.006076015,172.17.160.76,10.64.29.0,1,unknown,2,2014-11-15 18:18:58.289,134,2014-11-15 18:16:20.024,3
2014-11-15 18:19:08.936,49200,1640,40.10475,-88.22187,231.9839,0.44,194.7656,16,30,1416097148,-0.3173523,-0.5940399,0.7248383,-5.784428,-34.12967,-9.402222,192.6339,195.7162,15,-0.07249071,-0.1341072,-0.03440218,0.4875605,-2.723318,0.6376382,-0.006142624,-0.03771483,-0.002276276,0.01919632,0.01276455,-0.006863532,172.17.160.76,10.64.29.0,1,unknown,2,2014-11-15 18:18:58.289,134,2014-11-15 18:16:20.024,3
2014-11-15 18:19:08.969,49201,1640.033,40.10475,-88.22187,231.9839,0.44,194.7656,16,30,1416097148,-0.3137054,-0.5847931,0.7272339,-5.750072,-34.16408,-9.502625,192.6579,195.7402,15,-0.09486127,-0.1373318,-0.04070429,0.4888746,-2.727583,0.6386462,-0.0253035,-0.08462382,-0.02368441,0.006542456,0.004037462,-0.008309629,172.17.160.76,10.64.29.0,1,unknown,2,2014-11-15 18:18:58.289,134,2014-11-15 18:16:20.024,3
2014-11-15 18:19:09.002,49202,1640.067,40.10475,-88.22187,231.9839,0.44,194.7656,16,30,1416097148,-0.3182831,-0.5910797,0.7348328,-5.543892,-34.16408,-9.302002,192.6603,195.7426,15,-0.0905299,-0.1460185,-0.06518033,0.4897458,-2.731258,0.6398405,-0.03485628,-0.07088004,-0.03313031,0.005798101,0.01515837,-0.006686587,172.17.160.76,10.64.29.0,1,unknown,2,2014-11-15 18:18:58.289,134,2014-11-15 18:16:20.024,3
2014-11-15 18:19:09.036,49203,1640.1,40.10475,-88.22187,231.9839,0.44,194.7656,16,30,1416097148,-0.3351898,-0.579422,0.758606,-5.440796,-34.4738,-8.934143,192.6577,195.74,15,-0.1074926,-0.1526332,-0.09805759,0.4907425,-2.73348,0.6406887,-0.03049424,-0.08177231,-0.06823287,-0.003743935,-0.007721021,0.008801089,172.17.160.76,10.64.29.0,1,unknown,2,2014-11-15 18:18:58.289,134,2014-11-15 18:16:20.024,3
2014-11-15 18:19:09.069,49204,1640.133,40.10475,-88.22189,231.6201,0.36,186.6797,16,30,1416097149,-0.3482056,-0.5831604,0.7528229,-5.475159,-34.57702,-8.967529,192.6449,195.7272,15,-0.06915031,-0.1664023,-0.08978182,0.4932621,-2.738249,0.6409894,-0.0293846,-0.1031425,-0.08426458,-0.0267673,0.0218016,0.02062565,172.17.160.76,10.64.29.0,1,unknown,2,2014-11-15 18:18:58.289,134,2014-11-15 18:16:20.024,3
2014-11-15 18:19:09.103,49205,1640.167,40.10475,-88.22189,231.6201,0.36,186.6797,16,30,1416097149,-0.3546753,-0.6178436,0.7394562,-5.543884,-34.5082,-9.235107,192.6424,195.7247,15,-0.0436295,-0.1545427,-0.06540085,0.4939363,-2.739621,0.6400037,0.01107271,-0.09236394,-0.06206154,-0.03439976,0.01403797,0.01466299,172.17.160.76,10.64.29.0,1,unknown,2,2014-11-15 18:18:58.289,134,2014-11-15 18:16:20.024,3
2014-11-15 18:19:09.136,49206,1640.2,40.10475,-88.22189,231.6201,0.36,186.6797,16,30,1416097149,-0.3331146,-0.5908661,0.7473755,-5.646984,-34.12967,-9.000977,192.6397,195.722,15,-0.05655489,-0.156334,-0.02184112,0.492905,-2.740276,0.6404112,-0.008267133,-0.0898449,-0.01313763,-0.02916498,-0.01593913,-0.0002109252,172.17.160.76,10.64.29.0,1,unknown,2,2014-11-15 18:18:58.289,134,2014-11-15 18:16:20.024,3
2014-11-15 18:19:09.169,49207,1640.233,40.10475,-88.22189,231.6201,0.36,186.6797,16,30,1416097149,-0.3217926,-0.589035,0.7430725,-5.887539,-33.81996,-8.83374,192.6542,195.7365,15,-0.0267922,-0.1401622,0.01103854,0.4924038,-2.741791,0.6395388,0.01940078,-0.09078948,0.003742188,-0.01666829,0.008415976,0.009226712,172.17.160.76,10.64.29.0,1,unknown,2,2014-11-15 18:18:58.289,134,2014-11-15 18:16:20.024,3
2014-11-15 18:19:09.203,49208,1640.267,40.10475,-88.22189,231.6201,0.36,186.6797,16,30,1416097149,-0.2989655,-0.5964661,0.7330627,-5.990635,-33.9232,-8.800293,192.6618,195.7441,15,-0.03850212,-0.1221001,0.01011602,0.4918903,-2.742714,0.6381349,0.03640267,-0.0736188,0.02712452,-0.01614024,0.006617597,0.006794233,172.17.160.76,10.64.29.0,1,unknown,2,2014-11-15 18:18:58.289,134,2014-11-15 18:16:20.024,3
2014-11-15 18:19:09.236,49209,1640.3,40.10475,-88.22189,231.6201,0.36,186.6797,16,30,1416097149,-0.2901154,-0.5789185,0.7384949,-6.471733,-33.99202,-9.067932,192.6919,195.7742,15,-0.07678932,-0.1286962,-0.02161981,0.4914177,-2.744921,0.6372813,-0.001906501,-0.05674343,0.008248909,0.01307698,0.002971542,-0.00395887,172.17.160.76,10.64.29.0,1,unknown,2,2014-11-15 18:18:58.289,134,2014-11-15 18:16:20.024,3
2014-11-15 18:19:09.269,49210,1640.333,40.10475,-88.22189,231.6201,0.36,186.6797,16,30,1416097149,-0.2910767,-0.5923462,0.735321,-6.059361,-33.78555,-8.934143,192.7018,195.7841,15,-0.07780185,-0.1213773,-0.0374997,0.4915729,-2.746477,0.637371,-0.01359514,-0.06215607,-0.005535737,0.01545765,0.01412153,-0.00309496,172.17.160.76,10.64.29.0,1,unknown,2,2014-11-15 18:18:58.289,134,2014-11-15 18:16:20.024,3
2014-11-15 18:19:09.302,49211,1640.367,40.10475,-88.22189,231.6201,0.36,186.6797,16,30,1416097149,-0.3047333,-0.5932617,0.7510376,-6.128086,-33.99202,-8.666504,192.7179,195.8002,15,-0.08732612,-0.1215483,-0.06081754,0.493425,-2.751117,0.6390955,-0.02200988,-0.05392544,-0.04155321,0.008081509,-0.001033946,-0.002504114,172.17.160.76,10.64.29.0,1,unknown,2,2014-11-15 18:18:58.289,134,2014-11-15 18:16:20.024,3
2014-11-15 18:19:09.336,49212,1640.4,40.10475,-88.22189,231.6201,0.36,186.6797,16,30,1416097149,-0.3188782,-0.5952301,0.7437897,-5.715717,-33.71673,-8.465759,192.7188,195.8011,15,-0.08626884,-0.1162038,-0.05654743,0.494374,-2.752894,0.6396686,-0.02623791,-0.04744463,-0.04461355,-0.0006765196,0.003667902,0.008592639,172.17.160.76,10.64.29.0,1,unknown,2,2014-11-15 18:18:58.289,134,2014-11-15 18:16:20.024,3
2014-11-15 18:19:09.370,49213,1640.433,40.10475,-88.22189,231.6201,0.36,186.6797,16,30,1416097149,-0.3271179,-0.5897369,0.7483826,-5.81881,-33.81997,-8.69989,192.7169,195.7993,15,-0.07890946,-0.1170145,-0.02261184,0.494588,-2.754262,0.6403516,-0.01674148,-0.0514567,-0.01282232,-0.01873809,0.0006451565,0.0008798422,172.17.160.76,10.64.29.0,1,unknown,2,2014-11-15 18:18:58.289,134,2014-11-15 18:16:20.024,3
2014-11-15 18:19:09.403,49214,1640.467,40.10475,-88.22189,231.6201,0.36,186.6797,16,30,1416097149,-0.3166046,-0.6055756,0.7439728,-5.81881,-33.88879,-8.566162,192.7156,195.7979,15,-0.08752825,-0.105074,0.01038926,0.4938866,-2.754124,0.6401772,-0.01678184,-0.0428328,0.003148766,-0.02408928,0.007600612,0.005845367,172.17.160.76,10.64.29.0,1,unknown,2,2014-11-15 18:18:58.289,134,2014-11-15 18:16:20.024,3
2014-11-15 18:19:09.436,49215,1640.5,40.10475,-88.22189,231.6201,0.36,186.6797,16,30,1416097149,-0.321228,-0.6270447,0.752594,-5.784447,-33.99203,-8.465759,192.7143,195.7966,15,-0.1065129,-0.1055757,-0.05747714,0.4913769,-2.753358,0.6405354,-0.04559327,-0.06722891,0.00631716,-0.01308795,-0.007950812,0.001866119,172.17.160.76,10.64.29.0,1,unknown,2,2014-11-15 18:18:58.289,134,2014-11-15 18:16:20.024,3
2014-11-15 18:19:09.470,49216,1640.533,40.10475,-88.22189,231.6201,0.36,186.6797,16,30,1416097149,-0.2773132,-0.5981445,0.7415924,-5.234615,-33.64791,-8.934082,192.6974,195.7797,15,-0.12793,-0.03293265,-0.007124755,0.4914379,-2.75408,0.6437775,-0.08697146,0.01852138,-0.03872005,-0.001769349,-0.02525194,-0.006564869,172.17.160.76,10.64.29.0,1,unknown,2,2014-11-15 18:18:58.289,134,2014-11-15 18:16:20.024,3
2014-11-15 18:19:09.502,49217,1640.567,40.10475,-88.22189,231.6201,0.36,186.6797,16,30,1416097149,-0.2857819,-0.5865021,0.7433167,-5.131523,-33.68232,-9.034363,192.6849,195.7672,15,-0.09724666,-0.07388621,0.05941805,0.491502,-2.75396,0.6460014,-0.0647194,0.0337432,0.00903998,0.0259208,-0.004797933,-0.004863774,172.17.160.76,10.64.29.0,1,unknown,2,2014-11-15 18:18:58.289,134,2014-11-15 18:16:20.024,3
2014-11-15 18:19:09.536,49218,1640.6,40.10475,-88.22189,231.6201,0.36,186.6797,16,30,1416097149,-0.3157501,-0.6020813,0.7368317,-5.028431,-34.12968,-9.335449,192.6526,195.7349,15,-0.06740647,-0.08239394,0.060323,0.4882078,-2.752799,0.6459999,-0.01490204,-0.01773054,0.09137564,0.004989389,0.01390817,0.005450213,172.17.160.76,10.64.29.0,1,unknown,2,2014-11-15 18:18:58.289,134,2014-11-15 18:16:20.024,3
2014-11-15 18:19:09.569,49219,1640.633,40.10475,-88.22189,231.6201,0.36,186.6797,16,30,1416097149,-0.2926331,-0.6091614,0.7199554,-5.681355,-34.23291,-9.034363,192.6456,195.7279,15,-0.07380205,-0.04300259,0.07010771,0.4844244,-2.750869,0.6447603,-0.006302568,0.007639574,0.07449405,-0.008452877,-0.005987811,-0.008157641,172.17.160.76,10.64.29.0,1,unknown,2,2014-11-15 18:18:58.289,134,2014-11-15 18:16:20.024,3
2014-11-15 18:19:09.603,49220,1640.667,40.10475,-88.22189,231.6201,0.36,186.6797,16,30,1416097149,-0.258606,-0.5820923,0.7089691,-5.887539,-34.09526,-9.168152,192.6505,195.7328,15,-0.06117707,-0.00213479,0.1360875,0.479199,-2.745988,0.6436809,0.002063936,0.05913549,0.1405451,0.03472251,0.003433572,-0.01826275,172.17.160.76,10.64.29.0,1,unknown,2,2014-11-15 18:18:58.289,134,2014-11-15 18:16:20.024,3
2014-11-15 18:19:09.636,49221,1640.7,40.10475,-88.22189,231.6201,0.36,186.6797,16,30,1416097149,-0.2675171,-0.5497284,0.6847687,-6.231182,-33.6135,-9.235107,192.6786,195.7609,15,-0.0877975,0.01376961,0.1299021,0.4762512,-2.74349,0.6427918,-0.005432809,0.06986556,0.1544261,0.05169473,0.01734015,-0.02886165,172.17.160.76,10.64.29.0,1,unknown,2,2014-11-15 18:18:58.289,134,2014-11-15 18:16:20.024,3
2014-11-15 18:19:09.670,49222,1640.733,40.10475,-88.22189,231.6201,0.36,186.6797,16,30,1416097149,-0.3021851,-0.523407,0.6700897,-6.024998,-33.68232,-8.967468,192.6895,195.7718,15,-0.1271188,0.04116128,0.09622613,0.4744498,-2.741633,0.6423987,-0.02458852,0.08043712,0.1460617,0.05787138,0.02644008,-0.03700018,172.17.160.76,10.64.29.0,1,unknown,2,2014-11-15 18:18:58.289,134,2014-11-15 18:16:20.024,3
2014-11-15 18:19:09.703,49223,1640.767,40.10475,-88.22189,231.6201,0.36,186.6797,16,30,1416097149,-0.3303375,-0.5206909,0.6174774,-6.093727,-33.75114,-8.766785,192.72,195.8023,15,-0.04057992,0.1290105,0.05602838,0.4667343,-2.729708,0.6425376,-0.001903259,0.1744272,0.07110484,-0.008036013,0.0917979,-0.07984568,172.17.160.76,10.64.29.0,1,unknown,2,2014-11-15 18:18:58.289,134,2014-11-15 18:16:20.024,3
2014-11-15 18:19:09.736,49224,1640.8,40.10475,-88.22189,231.6201,0.36,186.6797,16,30,1416097149,-0.3103333,-0.5310364,0.5973358,-5.956272,-33.75114,-8.566162,193.2098,196.2921,15,0.004134025,0.184499,0.09012057,0.4646103,-2.722025,0.6405894,0.05781031,0.2394771,0.08934157,-0.003734611,0.07697718,-0.1147271,172.17.160.76,10.64.29.0,1,unknown,2,2014-11-15 18:18:58.289,134,2014-11-15 18:16:20.024,3
2014-11-15 18:19:09.770,49225,1640.833,40.10475,-88.22189,231.6201,0.36,186.6797,16,30,1416097149,-0.2683563,-0.4589691,0.5618896,-6.093727,-34.02645,-8.967468,193.7143,196.7966,15,0.01236293,0.139466,0.1779556,0.4600667,-2.709285,0.6356824,0.0788834,0.2379559,0.1709886,0.03842255,0.07909357,-0.146929,172.17.160.76,10.64.29.0,1,unknown,2,2014-11-15 18:18:58.289,134,2014-11-15 18:16:20.024,3
2014-11-15 18:19:09.802,49226,1640.867,40.10475,-88.22189,231.6201,0.36,186.6797,16,30,1416097149,-0.2548981,-0.4234161,0.5439606,-6.231182,-33.8888,-9.101379,194.0266,197.1089,15,0.03576838,0.1140238,0.1872873,0.4548358,-2.699859,0.6311437,0.08302657,0.1967356,0.2004774,0.08517018,0.1427877,-0.1727432,172.17.160.76,10.64.29.0,1,unknown,2,2014-11-15 18:18:58.289,134,2014-11-15 18:16:20.024,3
2014-11-15 18:19:09.836,49227,1640.9,40.10475,-88.22189,231.6201,0.36,186.6797,16,30,1416097149,-0.3013153,-0.4880524,0.587326,-6.884102,-34.19851,-9.268555,195.0934,198.1757,15,0.02301477,0.1022217,0.1713507,0.4495911,-2.691314,0.6259234,0.09581016,0.172265,0.1971162,0.09454595,0.1634368,-0.1906733,172.17.160.76,10.64.29.0,1,unknown,2,2014-11-15 18:18:58.289,134,2014-11-15 18:16:20.024,3
2014-11-15 18:19:09.869,49228,1640.933,40.10475,-88.22189,231.6201,0.36,186.6797,16,30,1416097149,-0.2925262,-0.4624939,0.6373596,-7.262112,-34.09528,-9.368896,195.1932,198.2755,15,-0.01963815,0.1523051,0.1876964,0.4446597,-2.683241,0.6211013,0.07238196,0.1935044,0.1941312,0.0585182,0.09387875,-0.1419723,172.17.160.76,10.64.29.0,1,unknown,2,2014-11-15 18:18:58.289,134,2014-11-15 18:16:20.024,3
2014-11-15 18:19:09.903,49229,1640.967,40.10475,-88.22189,231.6201,0.36,186.6797,16,30,1416097149,-0.2708893,-0.4883423,0.6173553,-7.605751,-34.02645,-9.636475,195.2292,198.3115,15,-0.03461896,0.1460648,0.2047033,0.4381102,-2.672603,0.6176226,-0.001205644,0.2374236,0.2201763,0.07595804,0.1166047,-0.08987087,172.17.160.76,10.64.29.0,1,unknown,2,2014-11-15 18:18:58.289,134,2014-11-15 18:16:20.024,3
2014-11-15 18:19:09.936,49230,1641,40.10475,-88.22189,231.6201,0.36,186.6797,16,30,1416097149,-0.3591461,-0.5463257,0.6199341,-7.743206,-33.40704,-10.10468,195.3314,198.4137,15,0.03163516,0.02001366,0.1199344,0.4297797,-2.659889,0.6124582,0.07986979,0.1361079,0.1758183,0.1007607,0.0771084,-0.118911,172.17.160.76,10.64.29.0,1,unknown,2,2014-11-15 18:18:58.289,134,2014-11-15 18:16:20.024,3
2014-11-15 18:19:09.969,49231,1641.033,40.10475,-88.22189,231.6201,0.36,186.6797,16,30,1416097149,-0.3730774,-0.5013733,0.6603088,-8.189934,-32.95968,-10.20502,197.6252,200.7075,15,0.02014335,-0.02528086,0.03057442,0.42782,-2.656985,0.6074451,0.08443161,0.01293144,0.04565165,0.0002599552,0.01922732,-0.09041029,172.17.160.76,10.64.29.0,1,unknown,2,2014-11-15 18:18:58.289,134,2014-11-15 18:16:20.024,3
2014-11-15 18:19:10.003,49232,1641.067,40.10475,-88.22189,231.6201,0.36,186.6797,16,30,1416097149,-0.3286743,-0.4615631,0.6055756,-8.602306,-33.09733,-10.20502,198.7292,201.8116,15,0.007384147,0.1385898,0.06120663,0.4273699,-2.654197,0.604403,0.08018456,0.1555454,0.07613996,0.01228127,0.06689768,-0.06671716,172.17.160.76,10.64.29.0,1,unknown,2,2014-11-15 18:18:58.289,134,2014-11-15 18:16:20.024,3
2014-11-15 18:19:10.036,49233,1641.1,40.10475,-88.22189,231.6201,0.36,186.6797,16,30,1416097149,-0.3682098,-0.5184326,0.5983582,-8.980305,-33.54469,-10.10468,199.2487,202.331,15,0.04156049,-0.04682317,-0.006771087,0.4268173,-2.646869,0.6009123,0.08673914,0.09150124,0.01429255,0.05761511,0.1004905,-0.1341732,172.17.160.76,10.64.29.0,1,unknown,2,2014-11-15 18:18:58.289,134,2014-11-15 18:16:20.024,3
2014-11-15 18:19:10.070,49234,1641.133,40.10477,-88.22192,231.9131,0.53,216.9141,16,30,1416097150,-0.353241,-0.5335693,0.6327972,-9.186485,-33.54469,-10.10468,199.5085,202.5908,15,0.06386953,-0.07857656,0.01102336,0.4272864,-2.646767,0.5999905,0.1048213,0.0202658,0.009603756,0.03980928,0.08450163,-0.1433958,172.17.160.76,10.64.29.0,1,unknown,2,2014-11-15 18:18:58.289,134,2014-11-15 18:16:20.024,3
2014-11-15 18:19:10.103,49235,1641.167,40.10477,-88.22192,231.9131,0.53,216.9141,16,30,1416097150,-0.3290405,-0.4664764,0.6743317,-8.980305,-33.95764,-10.57288,199.2541,202.3364,15,-0.08013931,-0.002692456,0.06079038,0.4257653,-2.643627,0.59286,0.04797414,0.1233576,0.1504749,0.05947388,0.04597887,-0.07046954,172.17.160.76,10.64.29.0,1,unknown,2,2014-11-15 18:18:58.289,134,2014-11-15 18:16:20.024,3
2014-11-15 18:19:10.136,49236,1641.2,40.10477,-88.22192,231.9131,0.53,216.9141,16,30,1416097150,-0.353775,-0.5705872,0.7433929,-9.598869,-33.75116,-11.04114,200.225,203.3073,15,0.008615592,-0.1524596,-0.06770848,0.4229542,-2.63998,0.5917147,-0.01142938,-0.001912015,0.02053682,0.06596015,0.08738705,-0.04104702,172.17.160.76,10.64.29.0,1,unknown,2,2014-11-15 18:18:58.289,134,2014-11-15 18:16:20.024,3
2014-11-15 18:19:10.169,49237,1641.233,40.10477,-88.22192,231.9131,0.53,216.9141,16,30,1416097150,-0.3416595,-0.5675964,0.7587738,-9.942516,-33.61351,-11.04114,200.8767,203.959,15,-0.02642149,-0.1112802,-0.1045123,0.427734,-2.645783,0.5894554,0.08900685,-0.03659716,-0.06387915,0.04888588,-0.02459695,0.03423231,172.17.160.76,10.64.29.0,1,unknown,2,2014-11-15 18:18:58.289,134,2014-11-15 18:16:20.024,3
2014-11-15 18:19:10.203,49238,1641.267,40.10477,-88.22192,231.9131,0.53,216.9141,16,30,1416097150,-0.4042053,-0.5622559,0.6973724,-9.942516,-33.40704,-11.17493,200.9668,204.0491,15,-0.1338782,-0.2118379,-0.2012343,0.4301201,-2.648219,0.5900626,-0.02488242,-0.08276759,-0.1348152,0.0492176,0.002274868,0.006804843,172.17.160.76,10.64.29.0,1,unknown,2,2014-11-15 18:18:58.289,134,2014-11-15 18:16:20.024,3
2014-11-15 18:19:10.236,49239,1641.3,40.10477,-88.22192,231.9131,0.53,216.9141,16,30,1416097150,-0.4783478,-0.5819397,0.7932739,-9.427055,-33.30381,-11.60974,200.3784,203.4607,15,-0.1402402,-0.2087269,-0.2118089,0.43749,-2.66018,0.5969501,-0.08119646,-0.2205424,-0.2319248,-0.04644549,0.006672172,-0.0192005,172.17.160.76,10.64.29.0,1,unknown,2,2014-11-15 18:18:58.289,134,2014-11-15 18:16:20.024,3
2014-11-15 18:19:10.269,49240,1641.333,40.10477,-88.22192,231.9131,0.53,216.9141,16,30,1416097150,-0.4473877,-0.5980072,0.8333588,-9.598869,-33.13175,-12.11139,200.5788,203.6611,15,-0.2043286,0.1152547,-0.08779243,0.4409849,-2.663712,0.6014791,-0.1154843,0.09396423,-0.09427063,-0.1138714,-0.04250528,0.09701516,172.17.160.76,10.64.29.0,1,unknown,2,2014-11-15 18:18:58.289,134,2014-11-15 18:16:20.024,3
2014-11-15 18:19:10.303,49241,1641.367,40.10477,-88.22192,231.9131,0.53,216.9141,16,30,1416097150,-0.4011993,-0.5552216,0.7715302,-9.770691,-33.09734,-12.47931,200.9392,204.0215,15,-0.133982,-0.03059652,-0.1206684,0.4413018,-2.658567,0.6061467,-0.1143794,0.1460308,-0.09400069,-0.06567122,-0.02830236,0.105534,172.17.160.76,10.64.29.0,1,unknown,2,2014-11-15 18:18:58.289,134,2014-11-15 18:16:20.024,3
2014-11-15 18:19:10.336,49242,1641.4,40.10477,-88.22192,231.9131,0.53,216.9141,16,30,1416097150,-0.3926239,-0.6836243,0.8634186,-10.25179,-33.16615,-12.81384,201.7797,204.862,15,-0.02022804,-0.164006,-0.05067756,0.4435857,-2.66088,0.6084441,0.01114801,-0.123439,-0.06393094,-0.005171418,0.02013884,0.03806674,172.17.160.76,10.64.29.0,1,unknown,2,2014-11-15 18:18:58.289,134,2014-11-15 18:16:20.024,3
2014-11-15 18:19:10.369,49243,1641.433,40.10477,-88.22192,231.9131,0.53,216.9141,16,30,1416097150,-0.473999,-0.6730652,0.818222,-10.11434,-33.5791,-13.75031,201.5401,204.6225,15,-0.1645176,-0.06134059,-0.2544627,0.4463833,-2.66286,0.6087287,-0.03330119,0.07591242,-0.1210964,-0.01471407,-0.1117993,0.13527,172.17.160.76,10.64.29.0,1,unknown,2,2014-11-15 18:18:58.289,134,2014-11-15 18:16:20.024,3
2014-11-15 18:19:10.403,49244,1641.467,40.10477,-88.22192,231.9131,0.53,216.9141,16,30,1416097150,-0.4293365,-0.5561371,0.7672882,-9.873787,-33.47586,-13.85065,202.0693,205.1516,15,-0.1304914,-0.148435,-0.2476183,0.4498328,-2.663984,0.6120206,-0.10123,0.005998241,-0.2379732,-0.09777509,-0.09854277,0.09132484,172.17.160.76,10.64.29.0,1,unknown,2,2014-11-15 18:18:58.289,134,2014-11-15 18:16:20.024,3
2014-11-15 18:19:10.436,49245,1641.5,40.10477,-88.22192,231.9131,0.53,216.9141,16,30,1416097150,-0.3751984,-0.7018738,0.8999176,-9.839424,-33.78556,-14.2854,202.0498,205.1321,15,7.749799e-05,-0.02042112,-0.0308908,0.4576626,-2.671228,0.6170129,0.06139547,-0.06420749,-0.09671347,-0.03416449,-0.00727501,0.06902874,172.17.160.76,10.64.29.0,1,unknown,2,2014-11-15 18:18:58.289,134,2014-11-15 18:16:20.024,3
2014-11-15 18:19:10.469,49246,1641.533,40.10477,-88.22192,231.9131,0.53,216.9141,16,30,1416097150,-0.4295807,-0.6961517,0.9008484,-9.805061,-33.33821,-14.51953,202.1815,205.2638,15,-0.06382159,0.0188392,-0.04212109,0.458681,-2.672094,0.6165024,0.08684264,-0.01383872,-0.03816205,-0.009468783,-0.04565535,0.1051275,172.17.160.76,10.64.29.0,1,unknown,2,2014-11-15 18:18:58.289,134,2014-11-15 18:16:20.024,3
2014-11-15 18:19:10.503,49247,1641.567,40.10477,-88.22192,231.9131,0.53,216.9141,16,30,1416097150,-0.4616699,-0.6193695,0.8392944,-9.839417,-33.57909,-14.82056,202.1479,205.2302,15,-0.1031733,-0.1730005,-0.1215336,0.4620101,-2.673136,0.6212941,-0.09310231,-0.1037271,-0.1334952,-0.1089395,-0.04134043,0.1298527,172.17.160.76,10.64.29.0,1,unknown,2,2014-11-15 18:18:58.289,134,2014-11-15 18:16:20.024,3
2014-11-15 18:19:10.536,49248,1641.6,40.10477,-88.22192,231.9131,0.53,216.9141,16,30,1416097150,-0.5072327,-0.7682648,0.912674,-9.839417,-33.71674,-14.82056,202.0448,205.1271,15,-0.07877604,0.02637275,-0.03034912,0.4645922,-2.676522,0.6223812,0.01858063,0.0448289,-0.01212224,-0.1008486,-0.09041414,0.1354968,172.17.160.76,10.64.29.0,1,unknown,2,2014-11-15 18:18:58.289,134,2014-11-15 18:16:20.024,3
2014-11-15 18:19:10.570,49249,1641.633,40.10477,-88.22192,231.9131,0.53,216.9141,16,30,1416097150,-0.4565277,-0.6463928,0.8270416,-10.49234,-34.37057,-15.32227,202.6448,205.7271,20,-0.08735169,0.01052588,-0.01872415,0.4645279,-2.673359,0.6234239,-0.04959827,0.1107439,-0.01151993,-0.1496707,-0.1839581,0.193287,172.17.160.76,10.64.29.0,1,unknown,2,2014-11-15 18:18:58.289,134,2014-11-15 18:16:20.024,3
2014-11-15 18:19:10.603,49250,1641.667,40.10477,-88.22192,231.9131,0.53,216.9141,16,30,1416097150,-0.4118195,-0.6756439,0.8349762,-10.62979,-34.50822,-15.38916,202.7857,205.868,20,-0.01278637,0.07238312,0.01635128,0.4642354,-2.670765,0.6233189,0.03450211,0.09822182,0.0241895,-0.08820988,-0.06265969,0.1034412,172.17.160.76,10.64.29.0,1,unknown,2,2014-11-15 18:18:58.289,134,2014-11-15 18:16:20.024,3
2014-11-15 18:19:10.636,49251,1641.7,40.10477,-88.22192,231.9131,0.53,216.9141,16,30,1416097150,-0.4146423,-0.7091064,0.8325806,-10.90471,-33.95762,-15.79047,203.5731,206.6554,20,-0.01697632,-0.003387008,-0.0275528,0.4643323,-2.666712,0.621621,0.05162506,0.1182745,0.00724717,-0.04011897,-0.09329023,0.1119942,172.17.160.76,10.64.29.0,1,unknown,2,2014-11-15 18:18:58.289,134,2014-11-15 18:16:20.024,3
2014-11-15 18:19:10.669,49252,1641.733,40.10477,-88.22192,231.9131,0.53,216.9141,16,30,1416097150,-0.4303131,-0.7437592,0.9020996,-10.6298,-34.09527,-15.45599,203.2042,206.2865,20,-0.1383717,-0.0313454,-0.07925807,0.4662893,-2.667808,0.6216615,-0.02291286,-0.04691934,-0.06340158,-0.05563164,-0.1498216,0.1228999,172.17.160.76,10.64.29.0,1,unknown,2,2014-11-15 18:18:58.289,134,2014-11-15 18:16:20.024,3
2014-11-15 18:19:10.702,49253,1641.767,40.10477,-88.22192,231.9131,0.53,216.9141,16,30,1416097150,-0.4219666,-0.7133331,0.9321442,-10.56107,-34.02645,-15.3222,203.088,206.1703,20,-0.1479607,-0.01964401,-0.07809906,0.4670479,-2.668147,0.6232221,-0.0750879,0.03598939,-0.06276968,-0.06007581,-0.1601047,0.1794159,172.17.160.76,10.64.29.0,1,unknown,2,2014-11-15 18:18:58.289,134,2014-11-15 18:16:20.024,3
2014-11-15 18:19:10.735,49254,1641.8,40.10477,-88.22192,231.9131,0.53,216.9141,16,30,1416097150,-0.4788971,-0.7599487,0.9255676,-10.18307,-33.92321,-15.48938,203.0715,206.1539,20,-0.06935325,-0.09988984,-0.00557373,0.4677318,-2.668116,0.6259748,-0.0123944,-0.03486136,-0.01348802,-0.05793465,-0.1264233,0.2004214,172.17.160.76,10.64.29.0,1,unknown,2,2014-11-15 18:18:58.289,134,2014-11-15 18:16:20.024,3
2014-11-15 18:19:10.770,49255,1641.833,40.10477,-88.22192,231.9131,0.53,216.9141,16,30,1416097150,-0.5671997,-0.7715149,0.9746857,-10.21743,-33.88879,-15.65662,203.0634,206.1458,20,-0.1383046,0.07068828,-0.07553657,0.4666603,-2.667011,0.626915,-0.06988003,0.07461479,-0.01269639,-0.136186,-0.1737878,0.213192,172.17.160.76,10.64.29.0,1,unknown,2,2014-11-15 18:18:58.289,134,2014-11-15 18:16:20.024,3
2014-11-15 18:19:10.803,49256,1641.867,40.10477,-88.22192,231.9131,0.53,216.9141,16,30,1416097150,-0.6420898,-0.714386,1.06395,-10.11434,-34.26732,-15.55627,202.5093,205.5916,20,-0.04353603,0.2465773,0.00570742,0.4671316,-2.660918,0.6297831,-0.01857368,0.2552309,-0.01193752,-0.2413019,-0.185231,0.3125667,172.17.160.76,10.64.29.0,1,unknown,2,2014-11-15 18:18:58.289,134,2014-11-15 18:16:20.024,3
2014-11-15 18:19:10.836,49257,1641.9,40.10477,-88.22192,231.9131,0.53,216.9141,16,30,1416097150,-0.5585938,-0.6749115,0.9763336,-9.942524,-35.0588,-15.3222,202.0057,205.088,20,0.1215999,0.274434,0.04663355,0.466956,-2.654482,0.6288526,0.08684416,0.3353285,0.04859395,-0.2635568,-0.1261687,0.3493076,172.17.160.76,10.64.29.0,1,unknown,2,2014-11-15 18:18:58.289,134,2014-11-15 18:16:20.024,3
2014-11-15 18:19:10.870,49258,1641.933,40.10477,-88.22192,231.9131,0.53,216.9141,16,30,1416097150,-0.5299377,-0.7636108,0.8929901,-9.736336,-34.92115,-14.78705,201.698,204.7803,20,0.2079455,0.2626942,0.04518692,0.4672229,-2.651227,0.6271572,0.1848819,0.3417668,0.06312146,-0.2400112,-0.1025773,0.3357184,172.17.160.76,10.64.29.0,1,unknown,2,2014-11-15 18:18:58.289,134,2014-11-15 18:16:20.024,3
2014-11-15 18:19:10.903,49259,1641.967,40.10477,-88.22192,231.9131,0.53,216.9141,16,30,1416097150,-0.5311584,-0.7400055,0.7904205,-9.701973,-34.61144,-14.21851,201.7579,204.8402,20,0.1172702,0.3107962,0.07762422,0.4743834,-2.637663,0.6084179,0.2657941,0.3260262,0.09457985,-0.1752665,-0.2620176,0.1171568,172.17.160.76,10.64.29.0,1,unknown,2,2014-11-15 18:18:58.289,134,2014-11-15 18:16:20.024,3
2014-11-15 18:19:10.936,49260,1642,40.10477,-88.22192,231.9131,0.53,216.9141,16,30,1416097150,-0.3957367,-0.6348724,0.7701416,-9.56451,-33.78556,-13.2821,201.6992,204.7815,20,-0.01438214,0.3856353,0.271701,0.4727498,-2.625767,0.6030493,0.06302358,0.3809668,0.1816084,-0.1249098,-0.172849,0.0739741,172.17.160.76,10.64.29.0,1,unknown,2,2014-11-15 18:18:58.289,134,2014-11-15 18:16:20.024,3
2014-11-15 18:19:10.970,49261,1642.033,40.10477,-88.22192,231.9131,0.53,216.9141,16,30,1416097150,-0.3228455,-0.5973053,0.7941284,-9.530148,-33.75114,-12.98108,201.6907,204.773,20,0.009242234,0.1360801,0.1514124,0.4623792,-2.603028,0.5955193,0.0722317,0.3616987,0.3046042,0.09879092,-0.0656024,0.05843354,172.17.160.76,10.64.29.0,1,unknown,2,2014-11-15 18:18:58.289,134,2014-11-15 18:16:20.024,3
2014-11-15 18:19:11.003,49262,1642.067,40.10477,-88.22192,231.9131,0.53,216.9141,16,30,1416097150,-0.4223328,-0.5870056,0.7164459,-9.014687,-33.37261,-12.88074,201.3465,204.4288,20,-0.09991195,-0.05498948,-0.1124325,0.4579444,-2.593788,0.5908721,0.03970347,0.1293966,0.07316104,0.08395638,-0.03661873,0.07461943,172.17.160.76,10.64.29.0,1,unknown,2,2014-11-15 18:18:58.289,134,2014-11-15 18:16:20.024,3
2014-11-15 18:19:11.036,49263,1642.1,40.10477,-88.22192,231.9131,0.53,216.9141,16,30,1416097150,-0.508606,-0.6499939,0.8104401,-8.327412,-33.99203,-13.08142,200.3243,203.4066,20,-0.1943242,0.02586355,-0.2464615,0.4613419,-2.592704,0.5974502,-0.1630125,0.1378867,-0.2232503,-0.04639244,-0.0633946,0.02522145,172.17.160.76,10.64.29.0,1,unknown,2,2014-11-15 18:18:58.289,134,2014-11-15 18:16:20.024,3
2014-11-15 18:19:11.070,49264,1642.133,40.10478,-88.22193,231.252,1.14,276.6797,16,30,1416097151,-0.5111542,-0.6318665,0.7784882,-8.052498,-33.92321,-13.34906,200.1561,203.2384,20,-0.09983365,-0.09138158,-0.1476534,0.4643984,-2.592888,0.6017483,-0.08215328,0.02966032,-0.197586,-0.07671803,-0.09636047,0.09122214,172.17.160.76,10.64.29.0,1,unknown,2,2014-11-15 18:18:58.289,134,2014-11-15 18:16:20.024,3
2014-11-15 18:19:11.103,49265,1642.167,40.10478,-88.22193,231.252,1.14,276.6797,16,30,1416097151,-0.5697021,-0.5807343,0.7272034,-7.949406,-33.75114,-13.11487,200.0061,203.0884,20,-0.1686106,-0.2209209,0.001590972,0.4662381,-2.594727,0.6035193,-0.02724235,-0.08403401,-0.05296737,-0.08065549,-0.07392062,0.09818681,172.17.160.76,10.64.29.0,1,unknown,2,2014-11-15 18:18:58.289,134,2014-11-15 18:16:20.024,3
2014-11-15 18:19:11.136,49266,1642.2,40.10478,-88.22193,231.252,1.14,276.6797,16,30,1416097151,-0.6378021,-0.5486145,0.7372589,-7.433945,-34.06085,-12.94763,199.2673,202.3497,20,-0.1846671,-0.2484287,0.01636699,0.4620133,-2.60052,0.6091043,-0.1746113,-0.2057608,1.740302e-05,-0.2052269,0.03024769,0.0005914922,172.17.160.76,10.64.29.0,1,unknown,2,2014-11-15 18:18:58.289,134,2014-11-15 18:16:20.024,3
2014-11-15 18:19:11.170,49267,1642.233,40.10478,-88.22193,231.252,1.14,276.6797,16,30,1416097151,-0.4651642,-0.5820923,0.7497559,-7.399582,-34.09527,-12.37909,198.9536,202.0359,20,-0.02437059,-0.05731282,0.289574,0.4575998,-2.601945,0.6095421,-0.00134513,-0.04703307,0.2061319,-0.2007118,0.007520121,0.05931784,172.17.160.76,10.64.29.0,1,unknown,2,2014-11-15 18:18:58.289,134,2014-11-15 18:16:20.024,3
2014-11-15 18:19:11.203,49268,1642.267,40.10478,-88.22193,231.252,1.14,276.6797,16,30,1416097151,-0.3689575,-0.566391,0.7118988,-7.846317,-34.40498,-11.54291,198.9889,202.0712,20,-0.07893876,-0.1685712,0.3274058,0.4435156,-2.594234,0.6006052,0.01726587,-0.05730968,0.3949517,0.01797731,-0.01116736,0.01483526,172.17.160.76,10.64.29.0,1,unknown,2,2014-11-15 18:18:58.289,134,2014-11-15 18:16:20.024,3
2014-11-15 18:19:11.236,49269,1642.3,40.10478,-88.22193,231.252,1.14,276.6797,16,30,1416097151,-0.4030151,-0.573349,0.7104187,-8.84288,-33.54467,-11.10809,200.6239,203.7062,20,-0.09147186,-0.1894413,0.2360554,0.4364538,-2.592317,0.597458,-0.02938072,-0.1196844,0.2928956,0.06267303,-0.003848333,0.006745754,172.17.160.76,10.64.29.0,1,unknown,2,2014-11-15 18:18:58.289,134,2014-11-15 18:16:20.024,3
2014-11-15 18:19:11.270,49270,1642.333,40.10478,-88.22193,231.252,1.14,276.6797,16,30,1416097151,-0.3746185,-0.5587616,0.6994171,-9.083427,-33.51025,-10.94086,200.9446,204.0269,20,-0.08187409,-0.1724205,0.2392935,0.4306923,-2.59157,0.5952557,-0.02819512,-0.122114,0.252542,0.03294716,-0.00553315,0.01715286,172.17.160.76,10.64.29.0,1,unknown,2,2014-11-15 18:18:58.289,134,2014-11-15 18:16:20.024,3
2014-11-15 18:19:11.303,49271,1642.367,40.10478,-88.22193,231.252,1.14,276.6797,16,30,1416097151,-0.3967133,-0.4715424,0.6699066,-9.255249,-33.33819,-10.77362,201.3122,204.3945,20,-0.1622701,0.04962375,0.08897195,0.4173413,-2.58396,0.589255,-0.0332057,0.1208801,0.2081964,0.08516872,0.0484329,-0.02168205,172.17.160.76,10.64.29.0,1,unknown,2,2014-11-15 18:18:58.289,134,2014-11-15 18:16:20.024,3
2014-11-15 18:19:11.336,49272,1642.4,40.10478,-88.22193,231.252,1.14,276.6797,16,30,1416097151,-0.4460602,-0.4783173,0.6458435,-8.84288,-33.95761,-10.43921,200.4278,203.5101,20,-0.2014596,0.03090812,-0.0001443433,0.4119734,-2.577519,0.5896033,-0.1297832,0.0985496,0.05877142,0.04765292,0.084489,-0.03249486,172.17.160.76,10.64.29.0,1,unknown,2,2014-11-15 18:18:58.289,134,2014-11-15 18:16:20.024,3
2014-11-15 18:19:11.370,49273,1642.433,40.10478,-88.22193,231.252,1.14,276.6797,16,30,1416097151,-0.4201202,-0.4777985,0.637558,-8.430508,-34.09526,-9.970947,199.7873,202.8696,20,-0.1119726,0.06295713,0.02834935,0.4078309,-2.571196,0.5932015,-0.07529576,0.1123657,0.03220588,0.003105073,0.07882434,-0.05578391,172.17.160.76,10.64.29.0,1,unknown,2,2014-11-15 18:18:58.289,134,2014-11-15 18:16:20.024,3
2014-11-15 18:19:11.403,49274,1642.467,40.10478,-88.22193,231.252,1.14,276.6797,16,30,1416097151,-0.4302673,-0.5142059,0.6153107,-8.155594,-33.95761,-9.770325,199.3605,202.4429,20,-0.1320137,0.03262319,-0.05028501,0.4052497,-2.56385,0.5941414,-0.05705728,0.14294,0.001515498,0.03703079,0.07099742,-0.05838357,172.17.160.76,10.64.29.0,1,unknown,2,2014-11-15 18:18:58.289,134,2014-11-15 18:16:20.024,3
2014-11-15 18:19:11.436,49275,1642.5,40.10478,-88.22193,231.252,1.14,276.6797,16,30,1416097151,-0.4358368,-0.5294037,0.6030579,-8.018135,-33.68232,-9.770325,199.3404,202.4227,20,-0.1447409,-0.02076413,-0.0855474,0.4050572,-2.562628,0.5948263,-0.0687106,0.100178,-0.03369499,0.03383873,0.06382862,-0.06616075,172.17.160.76,10.64.29.0,1,unknown,2,2014-11-15 18:18:58.289,134,2014-11-15 18:16:20.024,3
2014-11-15 18:19:11.470,49276,1642.533,40.10478,-88.22193,231.252,1.14,276.6797,16,30,1416097151,-0.3370972,-0.4260101,0.532608,-7.983765,-34.12968,-9.000977,198.8536,201.9359,20,-0.2110007,-0.2002388,-0.07669105,0.4064781,-2.564802,0.6007257,-0.106061,-0.1030485,-0.07283883,0.04916602,0.04989089,-0.1301725,172.17.160.76,10.64.29.0,1,unknown,2,2014-11-15 18:18:58.289,134,2014-11-15 18:16:20.024,3
2014-11-15 18:19:11.504,49277,1642.567,40.10478,-88.22193,231.252,1.14,276.6797,16,30,1416097151,-0.3099976,-0.3674774,0.5221863,-8.086857,-34.16408,-9.502686,198.7873,201.8696,20,-0.3070055,-0.3341825,-0.09083617,0.4047236,-2.568706,0.6063028,-0.2319671,-0.2155579,-0.06446808,0.1083467,0.143823,-0.1579497,172.17.160.76,10.64.29.0,1,unknown,2,2014-11-15 18:18:58.289,134,2014-11-15 18:16:20.024,3
2014-11-15 18:19:11.537,49278,1642.6,40.10478,-88.22193,231.252,1.14,276.6797,16,30,1416097151,-0.3099976,-0.3674774,0.5221863,-8.086857,-34.16408,-9.502686,198.7873,201.8696,20,-0.3070055,-0.3341825,-0.09083617,0.4047236,-2.568706,0.6063028,-0.2319671,-0.2155579,-0.06446808,0.1083467,0.143823,-0.1579497,172.17.160.76,10.64.29.0,1,unknown,2,2014-11-15 18:18:58.289,134,2014-11-15 18:16:20.024,3
2014-11-15 18:19:11.569,49279,1642.633,40.10478,-88.22193,231.252,1.14,276.6797,16,30,1416097151,-0.3217621,-0.3460083,0.4807281,-7.468296,-33.81997,-10.30542,198.0312,201.1135,20,-0.2134476,-0.4570837,-0.03769811,0.399793,-2.593638,0.6222203,-0.1863814,-0.434254,-0.03606918,0.0921489,0.2785958,-0.2138047,172.17.160.76,10.64.29.0,1,unknown,2,2014-11-15 18:18:58.289,134,2014-11-15 18:16:20.024,3
2014-11-15 18:19:11.603,49280,1642.667,40.10478,-88.22193,231.252,1.14,276.6797,16,30,1416097151,-0.2642059,-0.4310913,0.4976044,-7.537025,-33.88879,-10.1048,197.9528,201.0351,20,-0.1067374,-0.3786163,-0.05254523,0.3981302,-2.603482,0.6255522,-0.0680128,-0.3183621,-0.01891852,0.1039262,0.2127575,-0.2170141,172.17.160.76,10.64.29.0,1,unknown,2,2014-11-15 18:18:58.289,134,2014-11-15 18:16:20.024,3
