time,timestamp,recordtime,lat,long,alt,speed,course,verticalAccuracy,horizontalAccuracy,locTimeStamp,accelerationX,accelerationY,accelerationZ,HeadingX,HeadingY,HeadingZ,TrueHeading,MagneticHeading,HeadingAccuracy,RotationX,RotationY,RotationZ,motionYaw,motionRoll,motionPitch,motionRotationRateX,motionRotationRateY,motionRotationRateZ,motionUserAccelerationX,motionUserAccelerationY,motionUserAccelerationZ,en0,pdp_ip0,DeviceOrientation,Activity,Activity Confidence,Activity Start,Steps,Last Step Date,State
2014-11-15 18:19:01.136,48966,1632.2,40.10479,-88.22185,233.0993,1.09,189.4922,12,10,1416097141,-0.2875671,-0.5195007,0.7593384,-5.956284,-33.81994,-6.960571,192.0641,195.1464,15,-0.09970476,-0.1369461,0.1514441,0.4866377,-2.744596,0.5887167,-0.05352242,-0.0486939,0.1872354,0.006251922,0.05102179,0.01714554,172.17.160.76,10.64.29.0,1,unknown,2,2014-11-15 18:18:58.289,134,2014-11-15 18:16:20.024,3
2014-11-15 18:19:01.169,48967,1632.233,40.10479,-88.22185,233.0993,1.09,189.4922,12,10,1416097141,-0.2342987,-0.55513,0.7551727,-6.506107,-33.88877,-7.228149,193.0488,196.1311,15,-0.1188188,-0.1307367,0.1281958,0.4834483,-2.745413,0.5871487,-0.03641513,-0.07011271,0.1668885,0.03370086,0.03448877,-0.008699712,172.17.160.76,10.64.29.0,1,unknown,2,2014-11-15 18:18:58.289,134,2014-11-15 18:16:20.024,3
2014-11-15 18:19:01.203,48968,1632.267,40.10479,-88.22185,233.0993,1.09,189.4922,12,10,1416097141,-0.275238,-0.561615,0.7452393,-6.952839,-34.26729,-7.261597,193.288,196.3703,15,-0.1857906,-0.1929252,0.04956942,0.4763369,-2.744033,0.5870571,-0.06928384,-0.06948156,0.1075718,0.0880487,-0.001216745,-0.01246798,172.17.160.76,10.64.29.0,1,unknown,2,2014-11-15 18:18:58.289,134,2014-11-15 18:16:20.024,3
2014-11-15 18:19:01.236,48969,1632.3,40.10479,-88.22185,233.0993,1.09,189.4922,12,10,1416097141,-0.3270721,-0.5333557,0.7741394,-6.987202,-34.23288,-7.428833,193.3051,196.3875,15,-0.220735,-0.1988199,-0.02994192,0.471673,-2.746418,0.5907418,-0.156454,-0.1457918,0.002485081,0.02634683,-0.0002279714,-0.01711362,172.17.160.76,10.64.29.0,1,unknown,2,2014-11-15 18:18:58.289,134,2014-11-15 18:16:20.024,3
2014-11-15 18:19:01.269,48970,1632.333,40.10479,-88.22185,233.0993,1.09,189.4922,12,10,1416097141,-0.3471375,-0.5530701,0.7703094,-7.262112,-34.09523,-7.495728,193.3556,196.4379,15,-0.2015203,-0.1435343,-0.02441533,0.469449,-2.749677,0.596432,-0.1382491,-0.08745424,-0.01001379,-0.01875026,0.02665986,0.01100456,172.17.160.76,10.64.29.0,1,unknown,2,2014-11-15 18:18:58.289,134,2014-11-15 18:16:20.024,3
2014-11-15 18:19:01.303,48971,1632.367,40.10479,-88.22185,233.0993,1.09,189.4922,12,10,1416097141,-0.338562,-0.5487976,0.7784576,-7.193382,-34.23288,-7.562683,193.3824,196.4647,15,-0.1706916,-0.106071,0.01387986,0.4683053,-2.750484,0.5990618,-0.1393218,-0.06188763,-0.001383347,-0.03230679,0.01079787,0.006807912,172.17.160.76,10.64.29.0,1,unknown,2,2014-11-15 18:18:58.289,134,2014-11-15 18:16:20.024,3
2014-11-15 18:19:01.336,48972,1632.4,40.10479,-88.22185,233.0993,1.09,189.4922,12,10,1416097141,-0.3140564,-0.5575104,0.7743378,-6.746651,-33.92317,-7.663025,193.4155,196.4978,15,-0.1291814,-0.1176366,0.0327702,0.4650157,-2.750384,0.6024354,-0.07549516,-0.0434804,0.04836411,-0.02438175,0.01785321,0.01675061,172.17.160.76,172.17.160,1,unknown,2,2014-11-15 18:18:58.289,134,2014-11-15 18:16:20.024,3
2014-11-15 18:19:01.370,48973,1632.433,40.10479,-88.22185,233.0993,1.09,189.4922,12,10,1416097141,-0.3275909,-0.5646362,0.7792358,-6.746651,-33.92317,-7.59613,193.6623,196.7446,15,-0.1120565,-0.1039751,0.01367134,0.4627426,-2.750719,0.6036516,-0.05201185,-0.05847286,0.03439786,-0.007459357,0.006190116,0.0179086,172.17.160.76,10.64.29.0,1,unknown,2,2014-11-15 18:18:58.289,134,2014-11-15 18:16:20.024,3
2014-11-15 18:19:01.403,48974,1632.467,40.10479,-88.22185,233.0993,1.09,189.4922,12,10,1416097141,-0.2838745,-0.5832672,0.7606964,-6.884102,-33.7167,-7.796814,194.0388,197.1211,15,-0.1119263,-0.06278136,-0.01901817,0.4607391,-2.751118,0.6048891,-0.04873081,-0.0129037,0.01870316,0.002238903,0.003134375,0.003175075,172.17.160.76,10.64.29.0,1,unknown,2,2014-11-15 18:18:58.289,134,2014-11-15 18:16:20.024,3
2014-11-15 18:19:01.436,48975,1632.5,40.10479,-88.22185,233.0993,1.09,189.4922,12,10,1416097141,-0.2715302,-0.5752106,0.7660065,-7.124653,-33.88876,-7.96405,194.4341,197.5164,15,-0.1661884,-0.06089265,-0.05383394,0.4614823,-2.75316,0.6074662,-0.05713381,0.01338582,-0.01722452,0.03540724,-0.02210674,0.004796433,172.17.160.76,10.64.29.0,1,unknown,2,2014-11-15 18:18:58.289,134,2014-11-15 18:16:20.024,3
2014-11-15 18:19:01.469,48976,1632.533,40.10479,-88.22185,233.0993,1.09,189.4922,12,10,1416097141,-0.2825928,-0.5538635,0.7719421,-6.987202,-33.68229,-8.499146,194.6345,197.7168,15,-0.1597513,-0.09612946,-0.07633472,0.4627089,-2.75526,0.6102071,-0.11462,-0.01020991,-0.04898196,0.03520322,0.01000314,0.01023557,172.17.160.76,10.64.29.0,1,unknown,2,2014-11-15 18:18:58.289,134,2014-11-15 18:16:20.024,3
2014-11-15 18:19:01.502,48977,1632.567,40.10479,-88.22185,233.0993,1.09,189.4922,12,10,1416097141,-0.3027802,-0.575058,0.7620087,-6.884102,-33.37258,-8.465759,194.6305,197.7128,15,-0.114983,-0.1046526,-0.07654724,0.4630204,-2.755937,0.6126239,-0.09647642,-0.02943394,-0.06082749,0.03134476,0.02319727,0.01280755,172.17.160.76,10.64.29.0,1,unknown,2,2014-11-15 18:18:58.289,134,2014-11-15 18:16:20.024,3
2014-11-15 18:19:01.536,48978,1632.6,40.10479,-88.22185,233.0993,1.09,189.4922,12,10,1416097141,-0.3191986,-0.5956116,0.7654266,-6.918472,-33.20052,-8.365417,194.6301,197.7124,15,-0.1182076,-0.1013913,-0.06696466,0.4659419,-2.760829,0.6157084,-0.05599698,-0.04960094,-0.05471823,2.515537e-05,-0.004112784,0.004797909,172.17.160.76,10.64.29.0,1,unknown,2,2014-11-15 18:18:58.289,134,2014-11-15 18:16:20.024,3
2014-11-15 18:19:01.569,48979,1632.633,40.10479,-88.22185,233.0993,1.09,189.4922,12,10,1416097141,-0.3228302,-0.5899048,0.76091,-6.712284,-33.47582,-8.164673,194.6029,197.6852,15,-0.08639108,-0.09567086,-0.01079512,0.4660877,-2.761191,0.6185758,-0.01987293,-0.03016091,-0.01122945,-0.01604761,-0.01318794,0.008838204,172.17.160.76,10.64.29.0,1,unknown,2,2014-11-15 18:18:58.289,134,2014-11-15 18:16:20.024,3
2014-11-15 18:19:01.603,48980,1632.667,40.10479,-88.22185,233.0993,1.09,189.4922,12,10,1416097141,-0.3077393,-0.5789185,0.7574615,-6.231182,-33.75112,-8.365417,194.5434,197.6257,15,-0.1034657,-0.05090526,0.006488259,0.4640015,-2.759078,0.6193894,-0.03701923,-0.0001214605,0.02508721,-0.01789189,-0.008558005,0.003004593,172.17.160.76,10.64.29.0,1,unknown,2,2014-11-15 18:18:58.289,134,2014-11-15 18:16:20.024,3
2014-11-15 18:19:01.636,48981,1632.7,40.10479,-88.22185,233.0993,1.09,189.4922,12,10,1416097141,-0.2941589,-0.5806732,0.7778473,-6.128086,-33.92318,-8.332031,194.5075,197.5898,15,-0.08950698,-0.05861405,-0.02863351,0.4629695,-2.758039,0.6203617,-0.03800019,0.01137554,-0.0003242305,-0.003249592,0.002411102,0.00291401,172.17.160.76,10.64.29.0,1,unknown,2,2014-11-15 18:18:58.289,134,2014-11-15 18:16:20.024,3
2014-11-15 18:19:01.669,48982,1632.733,40.10479,-88.22185,233.0993,1.09,189.4922,12,10,1416097141,-0.2875214,-0.5953522,0.7664948,-5.85318,-33.57906,-8.532654,194.4349,197.5172,15,-0.07462443,-0.05958024,-0.01489506,0.464305,-2.759858,0.6198511,-0.00279256,0.01023275,-0.0078943,0.006962556,-0.0035434,0.0194963,172.17.160.76,10.64.29.0,1,unknown,2,2014-11-15 18:18:58.289,134,2014-11-15 18:16:20.024,3
2014-11-15 18:19:01.703,48983,1632.767,40.10479,-88.22185,233.0993,1.09,189.4922,12,10,1416097141,-0.2879639,-0.5779724,0.7594299,-6.162457,-33.75112,-8.432312,194.4071,197.4894,15,-0.0841487,-0.08955998,-0.04580025,0.4657445,-2.76227,0.6208384,-0.02625629,0.0006797073,-0.006801632,0.01685915,-0.001366772,0.009229277,172.17.160.76,10.64.29.0,1,unknown,2,2014-11-15 18:18:58.289,134,2014-11-15 18:16:20.024,3
2014-11-15 18:19:01.736,48984,1632.8,40.10479,-88.22185,233.0993,1.09,189.4922,12,10,1416097141,-0.2996063,-0.5818939,0.758316,-6.437363,-34.23289,-8.632935,194.3579,197.4402,15,-0.07344013,-0.1024603,-0.06501495,0.4671749,-2.764617,0.6215295,-0.01763563,-0.03255755,-0.04522466,0.009932388,0.006076936,0.001559092,172.17.160.76,10.64.29.0,1,unknown,2,2014-11-15 18:18:58.289,134,2014-11-15 18:16:20.024,3
2014-11-15 18:19:01.769,48985,1632.833,40.10479,-88.22185,233.0993,1.09,189.4922,12,10,1416097141,-0.2966003,-0.594696,0.7501984,-6.781002,-34.09525,-8.967407,194.3435,197.4258,15,-0.06395341,-0.07983891,-0.02353355,0.4686737,-2.76651,0.6222185,-0.004858506,-0.02826601,-0.03888083,-0.005287948,-0.001907982,0.0008484172,172.17.160.76,10.64.29.0,1,unknown,2,2014-11-15 18:18:58.289,134,2014-11-15 18:16:20.024,3
2014-11-15 18:19:01.803,48986,1632.867,40.10479,-88.22185,233.0993,1.09,189.4922,12,10,1416097141,-0.2937012,-0.5978546,0.7599182,-6.506088,-33.88877,-9.034363,194.3322,197.4145,15,-0.09062577,-0.07338607,-0.01490784,0.4688784,-2.76676,0.6225421,-0.0006771199,-0.01315918,-0.008033643,-0.004660986,-0.006604131,-0.0007441088,172.17.160.76,10.64.29.0,1,unknown,2,2014-11-15 18:18:58.289,134,2014-11-15 18:16:20.024,3
2014-11-15 18:19:01.836,48987,1632.9,40.10479,-88.22185,233.0993,1.09,189.4922,12,10,1416097141,-0.2863159,-0.6153107,0.7608795,-5.956264,-33.13171,-8.900574,194.293,197.3753,15,-0.08751627,-0.07635976,0.01372487,0.4681067,-2.767087,0.6251939,-0.0285041,-0.01289206,0.02603534,0.001483072,-0.004268796,0.005330607,172.17.160.76,10.64.29.0,1,unknown,2,2014-11-15 18:18:58.289,134,2014-11-15 18:16:20.024,3
2014-11-15 18:19:01.869,48988,1632.933,40.10479,-88.22185,233.0993,1.09,189.4922,12,10,1416097141,-0.2718353,-0.6004944,0.7527008,-5.81881,-33.26935,-8.298523,194.2408,197.3231,15,-0.1237049,-0.06371027,-0.00199524,0.4671973,-2.767416,0.627261,-0.04872082,0.00723103,0.0166586,0.01679881,-0.02890005,0.005140223,172.17.160.76,10.64.29.0,1,unknown,2,2014-11-15 18:18:58.289,134,2014-11-15 18:16:20.024,3
2014-11-15 18:19:01.903,48989,1632.967,40.10479,-88.22185,233.0993,1.09,189.4922,12,10,1416097141,-0.260025,-0.5857239,0.7479553,-5.784443,-33.09729,-8.265015,194.2138,197.2961,15,-0.1205275,-0.06578913,0.004350806,0.4669968,-2.767973,0.6291345,-0.06470503,0.002952696,0.01244608,0.02327042,-0.01204916,-5.733684e-05,172.17.160.76,10.64.29.0,1,unknown,2,2014-11-15 18:18:58.289,134,2014-11-15 18:16:20.024,3
2014-11-15 18:19:01.935,48990,1633,40.10479,-88.22185,233.0993,1.09,189.4922,12,10,1416097141,-0.2589264,-0.554718,0.7071991,-5.853172,-33.37259,-8.265015,194.1599,197.2422,15,-0.1003018,-0.03272279,0.02249439,0.4672375,-2.770378,0.6311194,-0.03704261,0.03074449,0.03795408,0.04076526,0.02429881,-0.01078307,172.17.160.76,10.64.29.0,1,unknown,2,2014-11-15 18:18:58.289,134,2014-11-15 18:16:20.024,3
2014-11-15 18:19:01.969,48991,1633.033,40.10479,-88.22185,233.0993,1.09,189.4922,12,10,1416097141,-0.2849274,-0.4810791,0.6334991,-6.128086,-33.51024,-8.666382,194.1244,197.2067,15,-0.1076748,-0.02442598,-0.005032842,0.4659889,-2.769233,0.6317878,-0.04127757,0.02641349,0.02733056,0.03305958,0.04568182,-0.05841978,172.17.160.76,10.64.29.0,1,unknown,2,2014-11-15 18:18:58.289,134,2014-11-15 18:16:20.024,3
2014-11-15 18:19:02.003,48992,1633.067,40.10479,-88.22185,233.0993,1.09,189.4922,12,10,1416097141,-0.2997437,-0.4383087,0.5943604,-6.231182,-33.6823,-8.900574,194.1153,197.1976,15,-0.067003,0.06670579,-0.03548822,0.4646904,-2.766521,0.6332682,-0.04116622,0.07723405,0.003183555,0.001557822,0.1338051,-0.1391124,172.17.160.76,10.64.29.0,1,unknown,2,2014-11-15 18:18:58.289,134,2014-11-15 18:16:20.024,3
2014-11-15 18:19:02.036,48993,1633.1,40.10479,-88.22185,233.0993,1.09,189.4922,12,10,1416097141,-0.2848053,-0.5180817,0.5681,-6.712284,-33.88877,-9.168091,194.1202,197.2025,15,0.05883962,0.125078,-0.03671354,0.4651375,-2.76297,0.6336184,0.03468289,0.16516,-0.02742052,-0.004188449,0.1432579,-0.1562991,172.17.160.76,10.64.29.0,1,unknown,2,2014-11-15 18:18:58.289,134,2014-11-15 18:16:20.024,3
2014-11-15 18:19:02.070,48994,1633.133,40.10477,-88.22186,233.054,1.37,199.6875,12,30,1416097142,-0.2054901,-0.4588623,0.5033112,-6.918472,-34.37054,-9.30188,194.4368,197.5191,15,0.05232419,0.09024707,-0.006089584,0.4673598,-2.758676,0.6308839,0.1423198,0.1864857,-0.01072765,0.01690158,0.07177711,-0.1809258,172.17.160.76,10.64.29.0,1,unknown,2,2014-11-15 18:18:58.289,134,2014-11-15 18:16:20.024,3
2014-11-15 18:19:02.103,48995,1633.167,40.10477,-88.22186,233.054,1.37,199.6875,12,30,1416097142,-0.1952057,-0.415329,0.5361633,-7.090294,-34.5426,-9.268372,194.6908,197.7731,15,-0.03403813,0.02857146,-0.01776728,0.4685237,-2.755959,0.6283963,0.1155849,0.1568978,0.00938476,0.06941333,0.0940585,-0.2294494,172.17.160.76,10.64.29.0,1,unknown,2,2014-11-15 18:18:58.289,134,2014-11-15 18:16:20.024,3
2014-11-15 18:19:02.136,48996,1633.2,40.10477,-88.22186,233.054,1.37,199.6875,12,30,1416097142,-0.2576447,-0.5353088,0.6430817,-6.952843,-34.33613,-9.402161,194.6639,197.7462,15,-0.03115153,-0.01110591,0.07542338,0.4688932,-2.752468,0.6266487,0.0290286,0.02969976,0.04512928,0.0868823,0.1339951,-0.1804125,172.17.160.76,10.64.29.0,1,unknown,2,2014-11-15 18:18:58.289,134,2014-11-15 18:16:20.024,3
2014-11-15 18:19:02.169,48997,1633.233,40.10477,-88.22186,233.054,1.37,199.6875,12,30,1416097142,-0.2504272,-0.4597168,0.618454,-7.571396,-33.57907,-9.468994,195.85,198.9323,15,-0.1752107,0.08300221,0.1465162,0.4626087,-2.744386,0.6249683,-0.0799892,0.1699131,0.1736536,0.05793995,0.05850602,-0.1007788,172.17.160.76,10.64.29.0,1,unknown,2,2014-11-15 18:18:58.289,134,2014-11-15 18:16:20.024,3
2014-11-15 18:19:02.203,48998,1633.267,40.10477,-88.22186,233.054,1.37,199.6875,12,30,1416097142,-0.2937012,-0.4496307,0.6352081,-7.640121,-33.0973,-9.335266,196.2071,199.2894,15,-0.1441439,-0.1079539,0.04773796,0.4562193,-2.737728,0.6265476,-0.1171931,0.007840659,0.09651263,0.06062627,0.1598684,-0.1387621,172.17.160.76,10.64.29.0,1,unknown,2,2014-11-15 18:18:58.289,134,2014-11-15 18:16:20.024,3
2014-11-15 18:19:02.236,48999,1633.3,40.10477,-88.22186,233.054,1.37,199.6875,12,30,1416097142,-0.302887,-0.5514832,0.6573944,-7.743217,-33.06289,-9.703125,196.6808,199.7631,15,-0.02569897,-0.03164155,0.0296511,0.4537457,-2.737306,0.6271983,0.008758483,-0.01390611,0.03860635,0.01943903,0.09693415,-0.09266822,172.17.160.76,10.64.29.0,1,unknown,2,2014-11-15 18:18:58.289,134,2014-11-15 18:16:20.024,3
2014-11-15 18:19:02.269,49000,1633.333,40.10477,-88.22186,233.054,1.37,199.6875,12,30,1416097142,-0.294693,-0.5110931,0.6108093,-7.365215,-33.37259,-9.870361,196.1911,199.2735,15,-0.1023381,0.0394313,0.009082711,0.4525421,-2.734559,0.6255075,0.03224217,0.1189384,0.05840212,0.02239413,0.03889315,-0.1007572,172.17.160.76,10.64.29.0,1,unknown,2,2014-11-15 18:18:58.289,134,2014-11-15 18:16:20.024,3
2014-11-15 18:19:02.302,49001,1633.367,40.10477,-88.22186,233.054,1.37,199.6875,12,30,1416097142,-0.3101654,-0.4905396,0.6215973,-7.262119,-33.6823,-10.4389,196.0534,199.1357,15,-0.1108187,0.009506952,-0.01439572,0.4511032,-2.73044,0.6258336,-0.05078412,0.08778858,0.008659245,0.02922614,0.07467997,-0.1321215,172.17.160.76,10.64.29.0,1,unknown,2,2014-11-15 18:18:58.289,134,2014-11-15 18:16:20.024,3
2014-11-15 18:19:02.336,49002,1633.4,40.10477,-88.22186,233.054,1.37,199.6875,12,30,1416097142,-0.3459778,-0.5437927,0.7017365,-7.846313,-33.44142,-10.53918,197.0649,200.1472,15,-0.05542651,0.05430026,0.01110831,0.4502734,-2.726641,0.6270696,-0.01772548,0.09838956,0.007529674,0.003769776,0.08051828,-0.08835223,172.17.160.76,10.64.29.0,1,unknown,2,2014-11-15 18:18:58.289,134,2014-11-15 18:16:20.024,3
2014-11-15 18:19:02.369,49003,1633.433,40.10477,-88.22186,233.054,1.37,199.6875,12,30,1416097142,-0.304657,-0.4751282,0.6637421,-8.189957,-33.51025,-10.87372,196.9915,200.0738,15,-0.05025119,0.02274712,0.05444353,0.4494889,-2.722721,0.6266361,0.02054457,0.1124794,0.04673531,-0.01652441,0.04263064,-0.038242,172.17.160.76,10.64.29.0,1,unknown,2,2014-11-15 18:18:58.289,134,2014-11-15 18:16:20.024,3
2014-11-15 18:19:02.402,49004,1633.467,40.10477,-88.22186,233.054,1.37,199.6875,12,30,1416097142,-0.3099976,-0.5024109,0.6760254,-8.602329,-33.16613,-10.94055,197.0183,200.1006,15,-0.04921628,-0.01869486,0.05422143,0.4474798,-2.71876,0.6254445,0.009778951,0.0797435,0.0731402,0.02801131,0.1103295,-0.07556244,172.17.160.76,10.64.29.0,1,unknown,2,2014-11-15 18:18:58.289,134,2014-11-15 18:16:20.024,3
2014-11-15 18:19:02.436,49005,1633.5,40.10477,-88.22186,233.054,1.37,199.6875,12,30,1416097142,-0.3009949,-0.5751953,0.7438202,-8.73978,-33.02848,-11.47565,197.0795,200.1618,15,-0.02038863,-0.08375961,0.02298787,0.4453993,-2.716086,0.6241092,0.03428365,0.01802009,0.0621085,0.02496835,0.08196376,-0.06309849,172.17.160.76,10.64.29.0,1,unknown,2,2014-11-15 18:18:58.289,134,2014-11-15 18:16:20.024,3
2014-11-15 18:19:02.469,49006,1633.533,40.10477,-88.22186,233.054,1.37,199.6875,12,30,1416097142,-0.2657928,-0.5288696,0.7503662,-9.083427,-32.82201,-11.94391,197.128,200.2103,15,-0.07041451,-0.08925531,-0.004452273,0.4447952,-2.715891,0.622911,0.04285584,-0.01722605,0.03853813,0.008235613,0.01400496,-0.02074718,172.17.160.76,10.64.29.0,1,unknown,2,2014-11-15 18:18:58.289,134,2014-11-15 18:16:20.024,3
2014-11-15 18:19:02.503,49007,1633.567,40.10477,-88.22186,233.054,1.37,199.6875,12,30,1416097142,-0.3540344,-0.6231232,0.7793884,-9.392704,-32.5123,-12.24493,197.235,200.3173,15,0.005577991,-0.2114124,-0.1359424,0.4465345,-2.719579,0.6238193,0.03576016,-0.1075682,-0.1062728,0.04941661,0.05110408,0.01065488,172.17.160.76,10.64.29.0,1,unknown,2,2014-11-15 18:18:58.289,134,2014-11-15 18:16:20.024,3
2014-11-15 18:19:02.536,49008,1633.6,40.10477,-88.22186,233.054,1.37,199.6875,12,30,1416097142,-0.355072,-0.6787415,0.8090515,-10.07999,-32.44347,-12.44556,197.3851,200.4674,15,-0.05419107,-0.2101442,-0.1123593,0.4514651,-2.727096,0.6233578,0.05810151,-0.1638897,-0.1055916,-0.03205406,-0.07610163,0.0436357,172.17.160.76,10.64.29.0,1,unknown,2,2014-11-15 18:18:58.289,134,2014-11-15 18:16:20.024,3
2014-11-15 18:19:02.569,49009,1633.633,40.10477,-88.22186,233.054,1.37,199.6875,12,30,1416097142,-0.4067078,-0.592865,0.8182678,-10.28617,-32.44347,-11.77667,201.1531,204.2354,15,-0.1468914,-0.1175956,-0.1040944,0.4547679,-2.733265,0.6266297,-0.1028354,-0.05638324,-0.09062374,-0.05411369,-0.03903962,0.09081387,172.17.160.76,10.64.29.0,1,unknown,2,2014-11-15 18:18:58.289,134,2014-11-15 18:16:20.024,3
2014-11-15 18:19:02.602,49010,1633.667,40.10477,-88.22186,233.054,1.37,199.6875,12,30,1416097142,-0.3645172,-0.643158,0.7836304,-10.07999,-32.7876,-12.11108,200.9173,203.9996,15,-0.04451181,-0.1400972,-0.1226415,0.4560754,-2.735055,0.6287285,-0.05165425,-0.05111204,-0.09291066,-0.0868921,-0.004748116,0.07541085,172.17.160.76,10.64.29.0,1,unknown,2,2014-11-15 18:18:58.289,134,2014-11-15 18:16:20.024,3
2014-11-15 18:19:02.636,49011,1633.7,40.10477,-88.22186,233.054,1.37,199.6875,12,30,1416097142,-0.3964233,-0.7340698,0.9122009,-9.701984,-32.75318,-12.14453,200.3448,203.4271,15,-0.1195349,-0.1081899,0.01792307,0.4603671,-2.740716,0.6298463,0.01748118,-0.09546486,-0.05200543,-0.02483091,-0.08885117,0.06550525,172.17.160.76,10.64.29.0,1,unknown,2,2014-11-15 18:18:58.289,134,2014-11-15 18:16:20.024,3
2014-11-15 18:19:02.669,49012,1633.733,40.10477,-88.22186,233.054,1.37,199.6875,12,30,1416097142,-0.4273682,-0.5942383,0.9302216,-10.14872,-32.85641,-12.78003,200.9386,204.0209,15,-0.1675757,-0.1516446,0.02955044,0.4590439,-2.741502,0.6309202,-0.1054032,-0.04677995,0.05592069,-0.08190668,-0.1441818,0.1684863,172.17.160.76,10.64.29.0,1,unknown,2,2014-11-15 18:18:58.289,134,2014-11-15 18:16:20.024,3
2014-11-15 18:19:02.703,49013,1633.767,40.10477,-88.22186,233.054,1.37,199.6875,12,30,1416097142,-0.3815308,-0.6228485,0.8460236,-10.56109,-32.78759,-12.98071,201.5471,204.6294,15,-0.04079723,-0.1515003,0.056675,0.4567072,-2.741483,0.6326604,-0.1043343,-0.08511428,0.04509994,-0.1042808,-0.05265903,0.2098747,172.17.160.76,10.64.29.0,1,unknown,2,2014-11-15 18:18:58.289,134,2014-11-15 18:16:20.024,3
2014-11-15 18:19:02.736,49014,1633.8,40.10477,-88.22186,233.054,1.37,199.6875,12,30,1416097142,-0.3264465,-0.6469116,0.8217468,-11.66074,-32.78759,-13.04755,201.6102,204.6925,15,0.0221101,0.1507903,0.1302121,0.4517408,-2.738427,0.6290293,0.08420814,0.1791867,0.1614871,-0.03746659,-0.03917285,0.08916296,172.17.160.76,10.64.29.0,1,unknown,2,2014-11-15 18:18:58.289,134,2014-11-15 18:16:20.024,3
2014-11-15 18:19:02.769,49015,1633.833,40.10477,-88.22186,233.054,1.37,199.6875,12,30,1416097142,-0.3225555,-0.7277374,0.8662872,-11.90129,-32.47788,-13.28174,203.9602,207.0425,15,-0.02659885,0.06162821,-0.001698831,0.4484876,-2.729549,0.6247393,0.05146966,0.1145518,0.04238324,0.00827925,-0.09133791,0.08604079,172.17.160.76,10.64.29.0,1,unknown,2,2014-11-15 18:18:58.289,134,2014-11-15 18:16:20.024,3
2014-11-15 18:19:02.803,49016,1633.867,40.10477,-88.22186,233.054,1.37,199.6875,12,30,1416097142,-0.3820953,-0.6660309,0.8538208,-12.14184,-32.51229,-13.24829,204.9025,207.9848,15,-0.107495,0.2231761,-0.001606685,0.4484097,-2.724469,0.6240919,-0.01230284,0.233339,0.00928004,-0.03915722,-0.1519675,0.1233957,172.17.160.76,10.64.29.0,1,unknown,2,2014-11-15 18:18:58.289,134,2014-11-15 18:16:20.024,3
2014-11-15 18:19:02.836,49017,1633.9,40.10477,-88.22186,233.054,1.37,199.6875,12,30,1416097142,-0.4176483,-0.6351166,0.8661346,-12.21056,-32.85641,-13.71655,205.1195,208.2018,15,-0.1574482,0.3271523,-0.02528618,0.4476034,-2.717938,0.6249439,-0.07511693,0.3449433,0.01010289,-0.04869904,-0.08097909,0.114523,172.17.160.76,10.64.29.0,1,unknown,2,2014-11-15 18:18:58.289,134,2014-11-15 18:16:20.024,3
2014-11-15 18:19:02.869,49018,1633.933,40.10477,-88.22186,233.054,1.37,199.6875,12,30,1416097142,-0.4910126,-0.647644,0.8681793,-12.03875,-33.02847,-13.95068,204.9837,208.066,15,-0.08338331,0.1874514,-0.2290422,0.4485924,-2.702285,0.6292233,-0.07249317,0.3777785,-0.1447105,-0.09269449,-0.04493638,0.1330758,172.17.160.76,10.64.29.0,1,unknown,2,2014-11-15 18:18:58.289,134,2014-11-15 18:16:20.024,3
2014-11-15 18:19:02.903,49019,1633.967,40.10477,-88.22186,233.054,1.37,199.6875,12,30,1416097142,-0.4697723,-0.728714,0.8458557,-11.45455,-32.99407,-14.25171,204.5994,207.6817,15,0.08013692,0.09318934,-0.03696121,0.4568548,-2.697303,0.6325535,0.07337724,0.1684284,-0.1389289,-0.1512995,-0.08666562,0.1318259,172.17.160.76,10.64.29.0,1,unknown,2,2014-11-15 18:18:58.289,134,2014-11-15 18:16:20.024,3
2014-11-15 18:19:02.936,49020,1634,40.10477,-88.22186,233.054,1.37,199.6875,12,30,1416097142,-0.4049835,-0.6712646,0.8249207,-11.214,-33.09731,-14.48584,204.3121,207.3944,15,0.03948988,-0.07997846,-0.03559794,0.4603519,-2.694714,0.6296102,0.135828,0.1279938,-0.001383128,-0.0895368,-0.1223824,0.1002609,172.17.160.76,10.64.29.0,1,unknown,2,2014-11-15 18:18:58.289,134,2014-11-15 18:16:20.024,3
2014-11-15 18:19:02.969,49021,1634.033,40.10477,-88.22186,233.054,1.37,199.6875,12,30,1416097142,-0.4027405,-0.7398529,0.8947144,-11.97,-33.3726,-14.75342,205.1251,208.2074,20,-0.04599253,-0.1976129,0.0001930792,0.4625074,-2.695756,0.6269754,0.07600909,-0.08992182,-0.0171675,-0.05578477,-0.08456656,0.09427328,172.17.160.76,10.64.29.0,1,unknown,2,2014-11-15 18:18:58.289,134,2014-11-15 18:16:20.024,3
2014-11-15 18:19:03.003,49022,1634.067,40.10477,-88.22186,233.054,1.37,199.6875,12,30,1416097142,-0.403595,-0.7188263,0.9183197,-12.41674,-33.47583,-14.92065,205.602,208.6843,20,-0.1630949,-0.1362191,-0.03831996,0.4622523,-2.700082,0.6266021,-0.05730447,-0.07374898,0.005707868,-0.05957219,-0.1603693,0.179974,172.17.160.76,10.64.29.0,1,unknown,2,2014-11-15 18:18:58.289,134,2014-11-15 18:16:20.024,3
2014-11-15 18:19:03.037,49023,1634.1,40.10477,-88.22186,233.054,1.37,199.6875,12,30,1416097142,-0.4133301,-0.8100128,0.981781,-13.10402,-33.47583,-15.25513,206.4389,209.5212,20,-0.1852817,-0.2229417,-0.1267966,0.4626901,-2.704369,0.6320893,-0.1316338,-0.1447148,-0.1100892,-0.059337,-0.1340676,0.1925923,172.17.160.76,10.64.29.0,1,unknown,2,2014-11-15 18:18:58.289,134,2014-11-15 18:16:20.024,3
2014-11-15 18:19:03.069,49024,1634.133,40.10476,-88.22187,232.9031,1.54,197.9297,12,30,1416097143,-0.5369568,-0.8223572,1.021652,-12.86348,-33.23495,-14.82031,206.2728,209.3551,20,-0.2300116,-0.1165714,-0.1143926,0.4643614,-2.709694,0.6367975,-0.1348388,-0.1148888,-0.1003669,-0.0767776,-0.2153891,0.2516063,172.17.160.76,10.64.29.0,1,unknown,2,2014-11-15 18:18:58.289,134,2014-11-15 18:16:20.024,3
2014-11-15 18:19:03.102,49025,1634.167,40.10476,-88.22187,232.9031,1.54,197.9297,12,30,1416097143,-0.5740662,-0.7611084,1.005951,-12.65729,-33.51025,-14.88721,205.8712,208.9535,20,-0.2394983,0.02262622,-0.1146856,0.4646571,-2.710557,0.6386609,-0.1667752,-0.05004631,-0.09884436,-0.1133325,-0.2216435,0.2711536,172.17.160.76,10.64.29.0,1,unknown,2,2014-11-15 18:18:58.289,134,2014-11-15 18:16:20.024,3
2014-11-15 18:19:03.136,49026,1634.2,40.10476,-88.22187,232.9031,1.54,197.9297,12,30,1416097143,-0.558197,-0.7259827,0.984375,-11.93563,-33.61348,-14.71997,204.9762,208.0585,20,-0.1210726,0.2565471,-0.08629867,0.4665491,-2.705203,0.6472803,-0.08234362,0.2634342,-0.09007953,-0.2494943,-0.1624839,0.2748362,172.17.160.76,10.64.29.0,1,unknown,2,2014-11-15 18:18:58.289,134,2014-11-15 18:16:20.024,3
2014-11-15 18:19:03.170,49027,1634.233,40.10476,-88.22187,232.9031,1.54,197.9297,12,30,1416097143,-0.5896149,-0.7306213,0.9692688,-11.83254,-33.57907,-15.22162,204.9208,208.0031,20,-0.07399087,0.2550216,-0.1448645,0.4691293,-2.692528,0.6496635,0.003019243,0.3845595,-0.08551553,-0.2061927,-0.09140109,0.2351307,172.17.160.76,10.64.29.0,1,unknown,2,2014-11-15 18:18:58.289,134,2014-11-15 18:16:20.024,3
2014-11-15 18:19:03.203,49028,1634.267,40.10476,-88.22187,232.9031,1.54,197.9297,12,30,1416097143,-0.6916351,-0.7924042,1.022598,-11.4889,-33.44143,-15.15479,204.7185,207.8008,20,-0.06544239,0.2219649,-0.1599313,0.4716194,-2.687059,0.6506587,-0.01075595,0.3215452,-0.1293166,-0.2402748,-0.1249107,0.254373,172.17.160.76,10.64.29.0,1,unknown,2,2014-11-15 18:18:58.289,134,2014-11-15 18:16:20.024,3
2014-11-15 18:19:03.236,49029,1634.3,40.10476,-88.22187,232.9031,1.54,197.9297,12,30,1416097143,-0.3299866,-0.7646637,0.729126,-11.04216,-32.64996,-15.45581,204.7317,207.814,20,0.05373647,0.3635183,0.3021125,0.4755803,-2.676148,0.6493934,0.1474782,0.4741603,0.1107893,-0.2764173,-0.2055383,0.1838582,172.17.160.76,10.64.29.0,1,unknown,2,2014-11-15 18:18:58.289,134,2014-11-15 18:16:20.024,3
2014-11-15 18:19:03.270,49030,1634.333,40.10476,-88.22187,232.9031,1.54,197.9297,12,30,1416097143,-0.3618774,-0.6260529,0.751358,-10.93907,-32.61555,-15.75677,204.8864,207.9687,20,0.07052423,0.2098161,0.3521913,0.4714111,-2.663801,0.6448396,0.1169707,0.4300411,0.3176602,-0.02588598,-0.2231485,-0.00756317,172.17.160.76,10.64.29.0,1,unknown,2,2014-11-15 18:18:58.289,134,2014-11-15 18:16:20.024,3
2014-11-15 18:19:03.303,49031,1634.367,40.10476,-88.22187,232.9031,1.54,197.9297,12,30,1416097143,-0.4640198,-0.6355286,0.7536011,-10.9047,-32.51231,-16.19159,205.1612,208.2435,20,0.03744191,-0.001936651,0.3098023,0.4580299,-2.651836,0.6316925,0.1759371,-0.1144205,0.4186673,-0.01091335,-0.03523615,-0.02186852,172.17.160.76,10.64.29.0,1,unknown,2,2014-11-15 18:18:58.289,134,2014-11-15 18:16:20.024,3
2014-11-15 18:19:03.336,49032,1634.4,40.10476,-88.22187,232.9031,1.54,197.9297,12,30,1416097143,-0.3119659,-0.631958,0.7235718,-11.17962,-32.78761,-16.25848,205.5162,208.5985,20,-0.008903214,0.2851889,0.1968478,0.4467449,-2.64179,0.622022,0.0755314,0.2773539,0.2300395,-0.07453045,-0.05284888,0.04031119,172.17.160.76,10.64.29.0,1,unknown,2,2014-11-15 18:18:58.289,134,2014-11-15 18:16:20.024,3
2014-11-15 18:19:03.370,49033,1634.433,40.10476,-88.22187,232.9031,1.54,197.9297,12,30,1416097143,-0.2968903,-0.5590057,0.7393341,-11.14525,-32.75319,-15.89062,205.5925,208.6748,20,-0.08019044,0.09112006,0.1016209,0.4386436,-2.623409,0.6175256,-0.02236478,0.2599134,0.1655637,0.1367531,-0.03331568,0.004473981,172.17.160.76,10.64.29.0,1,unknown,2,2014-11-15 18:18:58.289,134,2014-11-15 18:16:20.024,3
2014-11-15 18:19:03.403,49034,1634.467,40.10476,-88.22187,232.9031,1.54,197.9297,12,30,1416097143,-0.4258423,-0.5528717,0.7636871,-10.66415,-32.75319,-15.15479,205.155,208.2374,20,-0.05214762,-0.07684871,-0.04903758,0.4359166,-2.618994,0.6166384,-0.000785092,0.003751501,0.01446487,0.07146778,0.02955933,0.04234834,172.17.160.76,10.64.29.0,1,unknown,2,2014-11-15 18:18:58.289,134,2014-11-15 18:16:20.024,3
2014-11-15 18:19:03.436,49035,1634.5,40.10476,-88.22187,232.9031,1.54,197.9297,12,30,1416097143,-0.492569,-0.6248932,0.7402191,-9.908134,-32.95966,-14.75354,204.0128,207.0951,20,-0.01255707,-0.05700656,-0.0926021,0.4380421,-2.620376,0.6168808,0.03895129,0.005129556,-0.08227163,-0.05836387,0.008837353,0.07187601,172.17.160.76,10.64.29.0,1,unknown,2,2014-11-15 18:18:58.289,134,2014-11-15 18:16:20.024,3
2014-11-15 18:19:03.469,49036,1634.533,40.10476,-88.22187,232.9031,1.54,197.9297,12,30,1416097143,-0.4790955,-0.6227264,0.7173309,-9.736313,-32.92525,-14.58618,203.5646,206.6469,20,-0.05426936,-0.04174186,-0.04353736,0.4409888,-2.621706,0.616827,0.02182598,0.02127644,-0.05558551,-0.0719237,-0.05881825,0.009328298,172.17.160.76,10.64.29.0,1,unknown,2,2014-11-15 18:18:58.289,134,2014-11-15 18:16:20.024,3
2014-11-15 18:19:03.502,49037,1634.567,40.10476,-88.22187,232.9031,1.54,197.9297,12,30,1416097143,-0.51828,-0.6040649,0.7354736,-9.564487,-32.89084,-14.21832,203.3352,206.4175,20,-0.05657007,-0.0785803,0.002982474,0.4421518,-2.621724,0.6170173,0.008873053,0.004648323,-0.006796496,-0.0739291,-0.0441214,0.009477535,172.17.160.76,10.64.29.0,1,unknown,2,2014-11-15 18:18:58.289,134,2014-11-15 18:16:20.024,3
2014-11-15 18:19:03.536,49038,1634.6,40.10476,-88.22187,232.9031,1.54,197.9297,12,30,1416097143,-0.4859772,-0.6086121,0.7453766,-9.564487,-33.23496,-13.54944,202.8772,205.9595,20,-0.04829323,0.04660266,0.1182507,0.4401698,-2.619488,0.6157861,0.0033114,0.09358945,0.0924104,-0.1131452,-0.006109307,0.02846039,172.17.160.76,10.64.29.0,1,unknown,2,2014-11-15 18:18:58.289,134,2014-11-15 18:16:20.024,3
2014-11-15 18:19:03.569,49039,1634.633,40.10476,-88.22187,232.9031,1.54,197.9297,12,30,1416097143,-0.3708344,-0.5572662,0.7122192,-8.945938,-33.37261,-13.0144,202.1801,205.2625,20,-0.06542695,0.05106132,0.1448754,0.4362809,-2.613893,0.6135758,0.01061767,0.1163314,0.1498227,-0.07427966,-0.03281742,0.03900155,172.17.160.76,10.64.29.0,1,unknown,2,2014-11-15 18:18:58.289,134,2014-11-15 18:16:20.024,3
2014-11-15 18:19:03.602,49040,1634.667,40.10476,-88.22187,232.9031,1.54,197.9297,12,30,1416097143,-0.3841705,-0.5327911,0.6694183,-8.842842,-33.47585,-12.64642,201.8693,204.9516,20,-0.03667439,-0.007428089,0.1402138,0.4312007,-2.607538,0.6111066,0.008429235,0.1015675,0.1646138,0.0460658,0.01650788,0.007252903,172.17.160.76,10.64.29.0,1,unknown,2,2014-11-15 18:18:58.289,134,2014-11-15 18:16:20.024,3
2014-11-15 18:19:03.636,49041,1634.7,40.10476,-88.22187,232.9031,1.54,197.9297,12,30,1416097143,-0.4010315,-0.4999847,0.6389465,-8.602295,-32.95966,-12.2785,201.7869,204.8692,20,-0.03081677,0.0593853,-0.01761708,0.4254845,-2.600013,0.6070972,0.01842185,0.1250511,0.03838358,0.0348565,0.04770443,-0.04708224,172.17.160.76,10.64.29.0,1,unknown,2,2014-11-15 18:18:58.289,134,2014-11-15 18:16:20.024,3
2014-11-15 18:19:03.670,49042,1634.733,40.10476,-88.22187,232.9031,1.54,197.9297,12,30,1416097143,-0.4050598,-0.4865417,0.5676117,-8.739746,-32.95966,-11.54266,201.6592,204.7415,20,-0.05195348,0.04935317,-0.08127968,0.4267268,-2.597137,0.606552,0.03040383,0.1116305,-0.04983506,0.01929379,0.07260138,-0.08517497,172.17.160.76,10.64.29.0,1,unknown,2,2014-11-15 18:18:58.289,134,2014-11-15 18:16:20.024,3
2014-11-15 18:19:03.703,49043,1634.767,40.10476,-88.22187,232.9031,1.54,197.9297,12,30,1416097143,-0.4151001,-0.4788513,0.5725708,-8.63665,-33.13173,-11.7099,201.6522,204.7345,20,-0.06044204,0.03435318,-0.09831059,0.4290365,-2.594888,0.6077812,-0.01638595,0.1188121,-0.08677401,0.01878467,0.08000434,-0.1319262,172.17.160.76,10.64.29.0,1,unknown,2,2014-11-15 18:18:58.289,134,2014-11-15 18:16:20.024,3
2014-11-15 18:19:03.736,49044,1634.8,40.10476,-88.22187,232.9031,1.54,197.9297,12,30,1416097143,-0.3703308,-0.4503326,0.5315857,-8.189915,-33.30378,-10.94067,201.5706,204.6529,20,0.02024722,-0.06599526,-0.01422261,0.4315956,-2.594105,0.6081669,0.06228744,0.03307704,-0.03763052,0.01944795,0.09820418,-0.1390484,172.17.160.76,10.64.29.0,1,unknown,2,2014-11-15 18:18:58.289,134,2014-11-15 18:16:20.024,3
2014-11-15 18:19:03.770,49045,1634.833,40.10476,-88.22187,232.9031,1.54,197.9297,12,30,1416097143,-0.3025818,-0.3838501,0.4990082,-8.121181,-33.85437,-10.13794,201.4161,204.4984,20,-0.01949354,-0.1919218,0.05213644,0.4321446,-2.595933,0.6049445,0.05654756,-0.09365001,0.06574874,0.0956421,0.1488861,-0.1830702,172.17.160.76,10.64.29.0,1,unknown,2,2014-11-15 18:18:58.289,134,2014-11-15 18:16:20.024,3
2014-11-15 18:19:03.803,49046,1634.867,40.10476,-88.22187,232.9031,1.54,197.9297,12,30,1416097143,-0.2785187,-0.3421326,0.4754639,-7.94936,-33.54467,-9.770081,201.3286,204.4109,20,-0.007665377,-0.3295145,-0.01656726,0.4310012,-2.5998,0.6030721,0.03095287,-0.1947525,0.04302096,0.1331872,0.1963868,-0.2202641,172.17.160.76,10.64.29.0,1,unknown,2,2014-11-15 18:18:58.289,134,2014-11-15 18:16:20.024,3
2014-11-15 18:19:03.836,49047,1634.9,40.10476,-88.22187,232.9031,1.54,197.9297,12,30,1416097143,-0.2819824,-0.3764343,0.4708862,-7.914997,-34.1985,-9.602905,201.085,204.1673,20,0.0435536,-0.4105694,-0.05327627,0.4318383,-2.607895,0.6016352,0.07583347,-0.2961777,-0.01818575,0.1423561,0.2299623,-0.2414849,172.17.160.76,10.64.29.0,1,unknown,2,2014-11-15 18:18:58.289,134,2014-11-15 18:16:20.024,3
2014-11-15 18:19:03.869,49048,1634.933,40.10476,-88.22187,232.9031,1.54,197.9297,12,30,1416097143,-0.2848053,-0.4132538,0.5018768,-7.674454,-33.95761,-9.770081,197.8243,200.9066,20,0.03281387,-0.4561441,-0.0386153,0.4347492,-2.619699,0.5995127,0.117412,-0.3654038,-0.03675127,0.1296033,0.1878059,-0.2448164,172.17.160.76,10.64.29.0,1,unknown,2,2014-11-15 18:18:58.289,134,2014-11-15 18:16:20.024,3
2014-11-15 18:19:03.903,49049,1634.967,40.10476,-88.22187,232.9031,1.54,197.9297,12,30,1416097143,-0.2714691,-0.3973083,0.5198975,-7.605728,-34.30173,-9.502563,197.2906,200.3729,20,-0.02035987,-0.4713454,-0.08520145,0.4373696,-2.63274,0.5973298,0.07685643,-0.3908225,-0.0282415,0.1180109,0.1491829,-0.2202063,172.17.160.76,10.64.29.0,1,unknown,2,2014-11-15 18:18:58.289,134,2014-11-15 18:16:20.024,3
2014-11-15 18:19:03.936,49050,1635,40.10476,-88.22187,232.9031,1.54,197.9297,12,30,1416097143,-0.2611694,-0.4158478,0.5733185,-7.880646,-33.68232,-8.833618,197.3322,200.4145,20,-0.06154805,-0.4871998,-0.217816,0.4418591,-2.651573,0.5976653,0.002590219,-0.4204267,-0.1544358,0.1260883,0.1733402,-0.2082865,172.17.160.76,10.64.29.0,1,unknown,2,2014-11-15 18:18:58.289,134,2014-11-15 18:16:20.024,3
2014-11-15 18:19:03.970,49051,1635.033,40.10476,-88.22187,232.9031,1.54,197.9297,12,30,1416097143,-0.322403,-0.5222473,0.6516266,-7.880646,-33.54468,-8.632874,197.2386,200.3209,20,0.03891118,-0.5432321,-0.315082,0.4529368,-2.675583,0.6011778,0.07437622,-0.4777875,-0.2887535,0.07679785,0.09098952,-0.112787,172.17.160.76,10.64.29.0,1,unknown,2,2014-11-15 18:18:58.289,134,2014-11-15 18:16:20.024,3
