time,timestamp,recordtime,lat,long,alt,speed,course,verticalAccuracy,horizontalAccuracy,locTimeStamp,accelerationX,accelerationY,accelerationZ,HeadingX,HeadingY,HeadingZ,TrueHeading,MagneticHeading,HeadingAccuracy,RotationX,RotationY,RotationZ,motionYaw,motionRoll,motionPitch,motionRotationRateX,motionRotationRateY,motionRotationRateZ,motionUserAccelerationX,motionUserAccelerationY,motionUserAccelerationZ,en0,pdp_ip0,DeviceOrientation,Activity,Activity Confidence,Activity Start,Steps,Last Step Date,State
2014-11-13 21:45:23.720,17116,570.5334,40.10425,-88.22172,231,-1,-1,10,165,1415935777,0.9133301,-0.4061584,0.03189087,32.01706,-3.730522,3.121033,319.0831,322.1663,10,0.004182761,-0.08283709,0.005917011,-2.765338,1.577654,0.4121563,0.05068965,-0.01014445,0.004775973,-0.007225764,-0.005496117,0.02630957,172.17.160.76,0.0.0.0,4,running,0,2014-11-13 21:45:23.285,683,2014-11-13 21:44:53.658,0
2014-11-13 21:45:23.753,17117,570.5667,40.10425,-88.22172,231,-1,-1,10,165,1415935777,0.9241638,-0.4161072,0.02507019,31.81032,-3.93721,3.054016,319.0078,322.091,10,-0.003324424,-0.05717114,0.02730992,-2.768923,1.580151,0.413364,0.07086617,-0.002495478,0.03340202,-0.001458527,-0.01035608,0.02272946,172.17.160.76,0.0.0.0,4,running,0,2014-11-13 21:45:23.285,683,2014-11-13 21:44:53.658,0
2014-11-13 21:45:23.787,17118,570.6,40.10425,-88.22172,231,-1,-1,10,165,1415935777,0.9128876,-0.4090424,0.02256775,31.74141,-3.868317,2.652008,318.9164,321.9996,10,-0.03537663,-0.06549618,0.04861574,-2.771936,1.582573,0.4157482,0.03988513,-0.001246113,0.05581803,0.009214482,-0.0111951,0.01060432,172.17.160.76,0.0.0.0,4,running,0,2014-11-13 21:45:23.285,683,2014-11-13 21:44:53.658,0
2014-11-13 21:45:23.820,17119,570.6334,40.10425,-88.22172,231,-1,-1,10,165,1415935777,0.905426,-0.3985748,0.02305603,31.84478,-3.902756,2.350494,318.9394,322.0226,10,-0.07160681,-0.02719247,0.05319904,-2.773112,1.584378,0.4185442,0.0004425906,0.03390611,0.06464342,-0.005150055,0.003354586,0.01275305,172.17.160.76,0.0.0.0,4,running,0,2014-11-13 21:45:23.285,683,2014-11-13 21:44:53.658,0
2014-11-13 21:45:23.853,17120,570.6667,40.10425,-88.22172,231,-1,-1,10,165,1415935777,0.9163818,-0.3803253,0.0236969,32.36163,-3.730507,2.250031,318.9675,322.0507,10,-0.0854904,-0.004767058,0.06716838,-2.773021,1.585484,0.4198749,-0.01984341,0.04783479,0.07859169,-0.01263556,0.0063401,0.00796639,172.17.160.76,0.0.0.0,4,running,0,2014-11-13 21:45:23.285,683,2014-11-13 21:44:53.658,0
2014-11-13 21:45:23.887,17121,570.7,40.10425,-88.22172,231,-1,-1,10,165,1415935777,0.9101715,-0.38974,0.01826477,32.43055,-4.006104,2.384003,319.0007,322.0839,10,-0.07051198,0.05364459,0.06423545,-2.772574,1.589524,0.4216407,-0.008050275,0.1221879,0.07574993,0.001727489,0.02929888,0.001590684,172.17.160.76,0.0.0.0,4,running,0,2014-11-13 21:45:23.285,683,2014-11-13 21:44:53.658,0
2014-11-13 21:45:23.920,17122,570.7333,40.10425,-88.22172,231,-1,-1,10,165,1415935777,0.9196777,-0.3916931,0.01251221,31.91369,-3.833862,2.886597,318.9545,322.0377,10,-0.05555514,0.03652366,0.04922853,-2.772465,1.593042,0.4228143,0.001567514,0.1146722,0.06611701,0.004959633,0.01781145,-0.004828282,172.17.160.76,0.0.0.0,4,running,0,2014-11-13 21:45:23.285,683,2014-11-13 21:44:53.658,0
2014-11-13 21:45:23.953,17123,570.7667,40.10425,-88.22172,231,-1,-1,10,165,1415935777,0.9145966,-0.3926849,0.007873535,31.74141,-4.074997,2.786072,318.9414,322.0246,10,-0.07040173,0.000139017,0.01406362,-2.772124,1.595491,0.4230638,-0.006895107,0.05914505,0.02975893,0.0003383985,0.01973267,-0.01567924,172.17.160.76,0.0.0.0,4,running,0,2014-11-13 21:45:23.285,683,2014-11-13 21:44:53.658,0
2014-11-13 21:45:23.987,17124,570.8,40.10425,-88.22172,231,-1,-1,10,165,1415935777,0.9082184,-0.393219,0.01043701,32.08598,-4.143898,3.255096,318.8789,321.9621,10,-0.07040413,-0.02434076,0.00862731,-2.771497,1.596219,0.4229983,-0.007966766,0.04956974,0.02864754,0.001640418,0.01822339,-0.02298106,172.17.160.76,0.0.0.0,4,running,0,2014-11-13 21:45:23.285,683,2014-11-13 21:44:53.658,0
2014-11-13 21:45:24.020,17125,570.8334,40.10425,-88.22172,231,-1,-1,10,165,1415935777,0.9038544,-0.3983765,0.01147461,32.39609,-4.04055,3.020599,318.8663,321.9495,10,-0.07253226,-0.02328508,0.007579356,-2.771094,1.596344,0.4229527,-0.006884857,0.04207255,0.02117141,-0.003365006,0.01723577,-0.01285707,172.17.160.76,0.0.0.0,4,running,0,2014-11-13 21:45:23.285,683,2014-11-13 21:44:53.658,0
2014-11-13 21:45:24.053,17126,570.8667,40.10425,-88.22172,231,-1,-1,10,165,1415935777,0.8870697,-0.4021149,0.01622009,32.2238,-4.143906,2.384094,318.9168,322,10,-0.06623335,-0.08053292,0.0252995,-2.770252,1.596397,0.4231673,-0.01118089,0.0102091,0.02313965,-0.0007732557,0.01592082,-0.008966304,172.17.160.76,0.0.0.0,4,running,0,2014-11-13 21:45:23.285,683,2014-11-13 21:44:53.658,0
2014-11-13 21:45:24.087,17127,570.9,40.10425,-88.22172,231,-1,-1,10,165,1415935777,0.8874817,-0.4065247,0.02072144,32.05152,-4.109451,2.08255,319.0421,322.1253,10,-0.06947868,-0.07934888,0.04124011,-2.769842,1.595386,0.4245181,-0.00489502,-0.01613768,0.05269792,-0.0257232,0.007935773,-0.00269044,172.17.160.76,0.0.0.0,4,running,0,2014-11-13 21:45:23.285,683,2014-11-13 21:44:53.658,0
2014-11-13 21:45:24.120,17128,570.9333,40.10425,-88.22172,231,-1,-1,10,165,1415935777,0.8934326,-0.4139404,0.02429199,32.01706,-4.626183,2.451111,319.0991,322.1823,10,-0.08126849,-0.08237903,0.06143646,-2.769381,1.594246,0.4276309,-0.01990436,-0.02550229,0.07818244,-0.02696444,-0.0005212349,0.003795293,172.17.160.76,0.0.0.0,4,running,0,2014-11-13 21:45:23.285,683,2014-11-13 21:44:53.658,0
2014-11-13 21:45:24.153,17129,570.9667,40.10425,-88.22172,231,-1,-1,10,165,1415935777,0.893692,-0.4123077,0.02830505,32.25826,-4.591728,2.819641,319.0891,322.1722,10,-0.08985612,-0.09713134,0.07731316,-2.769054,1.593896,0.4292953,-0.02310178,-0.02017929,0.07928445,-0.01558407,0.002289756,0.003289949,172.17.160.76,0.0.0.0,4,running,0,2014-11-13 21:45:23.285,683,2014-11-13 21:44:53.658,0
2014-11-13 21:45:24.187,17130,571,40.10425,-88.22172,231,-1,-1,10,165,1415935777,0.8856049,-0.414856,0.02938843,32.2238,-4.832863,2.920166,319.0527,322.1359,10,-0.09533744,-0.1148494,0.1228841,-2.768081,1.592482,0.4336465,-0.02856471,-0.03900691,0.1184818,-0.01284757,0.01046883,0.002570541,172.17.160.76,0.0.0.0,4,running,0,2014-11-13 21:45:23.285,683,2014-11-13 21:44:53.658,0
2014-11-13 21:45:24.220,17131,571.0334,40.10425,-88.22172,231,-1,-1,10,165,1415935777,0.8949585,-0.4288025,0.03109741,31.9826,-4.798416,2.886688,317.4621,320.5453,10,-0.09107239,-0.07972173,0.131545,-2.767363,1.591414,0.4379672,-0.0318248,-0.0239435,0.1429878,-0.01768205,0.00742769,0.01267081,172.17.160.76,0.0.0.0,4,running,0,2014-11-13 21:45:23.285,683,2014-11-13 21:44:53.658,0
2014-11-13 21:45:24.253,17132,571.0667,40.10425,-88.22172,231,-1,-1,10,165,1415935777,0.90802,-0.4272461,0.02426147,31.81032,-4.832863,2.719177,317.6141,320.6973,10,-0.08464485,-0.08086742,0.1209001,-2.767129,1.591632,0.4410775,-0.02542924,-0.01329422,0.1462053,-0.009137408,-0.001888384,0.01225753,172.17.160.76,0.0.0.0,4,running,0,2014-11-13 21:45:23.285,683,2014-11-13 21:44:53.658,0
2014-11-13 21:45:24.287,17133,571.1,40.10425,-88.22172,231,-1,-1,10,165,1415935777,0.8987122,-0.4342346,0.02224731,31.36238,-5.349586,2.685699,316.5875,319.6707,10,-0.07720797,-0.110616,0.121777,-2.766319,1.590561,0.4480452,-0.02332054,-0.04517129,0.1460288,0.005115133,-0.00319683,0.007913921,172.17.160.76,0.0.0.0,4,running,0,2014-11-13 21:45:23.285,683,2014-11-13 21:44:53.658,0
2014-11-13 21:45:24.320,17134,571.1334,40.10425,-88.22172,231,-1,-1,10,165,1415935777,0.8980865,-0.4446869,0.02359009,31.63804,-5.487381,2.551697,316.607,319.6902,10,-0.06647064,-0.09377949,0.1005958,-2.766076,1.589747,0.4508248,-0.0136899,-0.04420074,0.1343214,-0.001214241,0.001473481,0.005190709,172.17.160.76,0.0.0.0,4,running,0,2014-11-13 21:45:23.285,683,2014-11-13 21:44:53.658,0
2014-11-13 21:45:24.354,17135,571.1667,40.10425,-88.22172,231,-1,-1,10,165,1415935777,0.9053345,-0.4521942,0.02072144,31.50021,-5.625175,2.350708,316.6267,319.7099,10,-0.0504709,-0.06932368,0.1038492,-2.766422,1.589269,0.4556723,0.007716542,-0.01674155,0.1131571,0.004928326,-0.005948271,0.005583786,172.17.160.76,0.0.0.0,4,running,0,2014-11-13 21:45:23.285,683,2014-11-13 21:44:53.658,0
2014-11-13 21:45:24.387,17136,571.2,40.10425,-88.22172,231,-1,-1,10,165,1415935777,0.9034576,-0.4573517,0.02076721,31.84478,-5.762985,2.350708,316.66,319.7432,10,-0.03338352,-0.0757957,0.0920748,-2.767061,1.589606,0.4595061,0.02156495,-0.0050112,0.1195373,0.009221377,-0.008688706,0.003863656,172.17.160.76,0.0.0.0,4,running,0,2014-11-13 21:45:23.285,683,2014-11-13 21:44:53.658,0
2014-11-13 21:45:24.420,17137,571.2333,40.10425,-88.22172,231,-1,-1,10,165,1415935777,0.8988342,-0.4581451,0.01930237,31.4313,-5.762985,2.350708,316.6748,319.758,10,-0.04716565,-0.07598052,0.06664987,-2.768129,1.589992,0.4628388,0.02695682,-0.01687768,0.09610252,0.008833868,-0.01086168,0.003592262,172.17.160.76,0.0.0.0,4,running,0,2014-11-13 21:45:23.285,683,2014-11-13 21:44:53.658,0
2014-11-13 21:45:24.453,17138,571.2667,40.10425,-88.22172,231,-1,-1,10,165,1415935777,0.8857269,-0.4531708,0.01495361,31.77586,-5.556282,2.819733,316.6618,319.745,10,-0.03430977,-0.05165893,0.05186906,-2.769308,1.590536,0.4664503,0.03024727,0.0201884,0.06113503,0.006921356,-0.003726765,-0.001272708,172.17.160.76,0.0.0.0,4,running,0,2014-11-13 21:45:23.285,683,2014-11-13 21:44:53.658,0
2014-11-13 21:45:24.487,17139,571.3,40.10425,-88.22172,231,-1,-1,10,165,1415935777,0.8802795,-0.4490509,0.01034546,31.39684,-5.590721,2.719269,316.6171,319.7003,10,-0.03431297,-0.06442613,0.04967887,-2.77047,1.590841,0.4689326,0.02919043,-0.008582886,0.05037392,-0.012569,0.001800113,-0.005275929,172.17.160.76,0.0.0.0,4,running,0,2014-11-13 21:45:23.285,683,2014-11-13 21:44:53.658,0
2014-11-13 21:45:24.520,17140,571.3334,40.10425,-88.22172,231,-1,-1,10,165,1415935777,0.8873138,-0.4561157,0.009674072,31.46575,-5.797409,2.920288,316.5662,319.6494,10,-0.02259905,-0.03884966,0.06038452,-2.77141,1.591218,0.4708325,0.03876458,0.0212668,0.06429465,-0.00646841,0.007751247,-0.01204858,172.17.160.76,0.0.0.0,4,running,0,2014-11-13 21:45:23.285,683,2014-11-13 21:44:53.658,0
2014-11-13 21:45:24.553,17141,571.3667,40.10425,-88.22172,231,-1,-1,10,165,1415935777,0.8835602,-0.4631958,0.002532959,31.22456,-5.900757,2.88678,316.5284,319.6116,10,-0.02474476,-0.04839603,0.06246524,-2.772545,1.592076,0.4732269,0.0430014,0.03410042,0.07602339,0.004126996,-0.003025108,-0.01224127,172.17.160.76,0.0.0.0,4,running,0,2014-11-13 21:45:23.285,683,2014-11-13 21:44:53.658,0
2014-11-13 21:45:24.587,17142,571.4,40.10425,-88.22172,231,-1,-1,10,165,1415935777,0.8835602,-0.4617004,0.009521484,31.56912,-5.900757,3.020813,316.461,319.5442,10,-0.005506086,-0.06343383,0.04214586,-2.773727,1.591735,0.4766992,0.03446095,-0.01697625,0.06623574,-0.01466235,-0.008390537,-0.007952419,172.17.160.76,0.0.0.0,4,running,0,2014-11-13 21:45:23.285,683,2014-11-13 21:44:53.658,0
2014-11-13 21:45:24.620,17143,571.4333,40.10425,-88.22172,231,-1,-1,10,165,1415935777,0.8900146,-0.4785004,0.01774597,31.81032,-6.210793,3.054321,316.347,319.4301,10,-0.004439223,-0.1006973,0.03239229,-2.775352,1.592169,0.478723,0.06002954,0.008475717,0.04916294,-0.0002046478,-0.008515853,-0.005434199,172.17.160.76,0.0.0.0,4,running,0,2014-11-13 21:45:23.285,683,2014-11-13 21:44:53.658,0
2014-11-13 21:45:24.653,17144,571.4667,40.10425,-88.22172,231,-1,-1,10,165,1415935777,0.8894501,-0.4729309,0.05081177,31.94815,-6.555275,2.987305,316.2989,319.3821,10,0.01042814,-0.1559201,0.03735323,-2.77736,1.592174,0.480644,0.05784481,-0.06059313,0.04881009,0.00266539,-0.01473104,0.001416085,172.17.160.76,0.0.0.0,4,running,0,2014-11-13 21:45:23.285,683,2014-11-13 21:44:53.658,0
2014-11-13 21:45:24.686,17145,571.5,40.10425,-88.22172,231,-1,-1,10,165,1415935777,0.9327698,-0.4723511,0.2298279,31.63804,-6.658615,2.953857,316.1934,319.2766,10,0.1533014,-0.1326222,0.03587944,-2.780719,1.59254,0.4824388,0.09300486,-0.0956781,0.04743394,-0.001684511,-0.004107064,0.05254737,172.17.160.76,0.0.0.0,4,running,0,2014-11-13 21:45:23.285,683,2014-11-13 21:44:53.658,0
2014-11-13 21:45:24.720,17146,571.5334,40.10425,-88.22172,231,-1,-1,10,165,1415935777,1.147949,-0.6991577,0.4235382,31.53467,-6.624176,2.719269,316.1345,319.2177,10,0.5469025,0.09657528,0.01862881,-2.787758,1.593645,0.4837696,0.3232989,-0.04156093,0.05216391,0.04775296,-0.007231548,0.2096026,172.17.160.76,0.0.0.0,4,running,0,2014-11-13 21:45:23.285,683,2014-11-13 21:44:53.658,0
2014-11-13 21:45:24.753,17147,571.5667,40.10425,-88.22172,231,-1,-1,10,165,1415935777,1.230118,-0.9606781,0.6077423,31.70695,-6.245239,3.020813,315.4848,318.568,10,1.444998,0.4308238,-1.115575,-2.83127,1.624975,0.4714256,1.262201,0.4106309,-0.7970948,0.2900425,-0.321188,0.4270811,172.17.160.76,0.0.0.0,4,running,0,2014-11-13 21:45:23.285,683,2014-11-13 21:44:53.658,0
2014-11-13 21:45:24.786,17148,571.6,40.10425,-88.22172,231,-1,-1,10,165,1415935777,1.217178,-0.9485779,0.7290039,32.05152,-5.211792,3.82486,317.8295,320.9127,10,1.907339,0.629428,-1.663985,-2.864343,1.650101,0.4457946,1.741779,0.5981289,-1.408255,0.3306853,-0.5295032,0.5362629,172.17.160.76,0.0.0.0,4,running,0,2014-11-13 21:45:23.285,683,2014-11-13 21:44:53.658,0
2014-11-13 21:45:24.820,17149,571.6334,40.10425,-88.22172,231,-1,-1,10,165,1415935777,0.9627228,-1.096863,0.7357635,32.01706,-4.212791,4.327393,316.6019,319.6851,10,2.69407,1.040558,-1.907846,-2.905289,1.68168,0.4083877,2.214349,0.8233564,-1.806895,0.3468766,-0.5841931,0.6008974,172.17.160.76,0.0.0.0,4,running,0,2014-11-13 21:45:23.285,683,2014-11-13 21:44:53.658,0
2014-11-13 21:45:24.853,17150,571.6667,40.10425,-88.22172,231,-1,-1,10,165,1415935777,1.0345,-1.226196,0.6831512,31.9826,-1.62915,6.102997,328.2661,331.3493,10,4.352422,2.443435,-2.470315,-3.044769,1.793817,0.2848076,3.739926,1.907311,-2.256968,0.01729985,-0.8363978,0.5348496,172.17.160.76,0.0.0.0,4,running,0,2014-11-13 21:45:23.285,683,2014-11-13 21:44:53.658,0
2014-11-13 21:45:24.887,17151,571.7,40.10425,-88.22172,231,-1,-1,10,165,1415935777,1.328583,-1.128586,0.4713135,31.4313,2.297974,8.247101,330.9213,334.0045,10,4.896536,2.770005,-2.529014,3.130053,1.891829,0.1798504,4.681555,2.704015,-2.508931,0.1890609,-1.04057,0.3200818,172.17.160.76,0.0.0.0,4,running,0,2014-11-13 21:45:23.285,683,2014-11-13 21:44:53.658,0
2014-11-13 21:45:24.920,17152,571.7333,40.10425,-88.22172,231,-1,-1,10,165,1415935777,1.280823,-1.062637,0.275528,29.94965,6.948502,10.55872,1.157532,4.240723,10,5.930151,2.680166,-2.400672,2.972131,2.021485,0.007176141,5.653767,2.820727,-2.470559,0.4357525,-1.114559,-0.03774748,172.17.160.76,0.0.0.0,4,running,0,2014-11-13 21:45:23.285,683,2014-11-13 21:44:53.658,0
2014-11-13 21:45:24.953,17153,571.7667,40.10425,-88.22172,231,-1,-1,10,165,1415935777,1.037857,-0.9070435,0.08969116,28.81258,9.807716,11.12827,15.67921,18.76241,10,6.337245,2.751116,-1.983599,2.847936,2.095948,-0.1399895,6.144617,2.765569,-2.285867,0.3517431,-1.173468,-0.2709455,172.17.160.76,0.0.0.0,4,running,0,2014-11-13 21:45:23.285,683,2014-11-13 21:44:53.658,0
2014-11-13 21:45:24.987,17154,571.8,40.10425,-88.22172,231,-1,-1,10,165,1415935777,0.9050446,-0.8140564,-0.004196167,26.64181,14.94052,11.56375,45.16512,48.24831,10,6.724884,2.996271,-1.433912,2.665614,2.166613,-0.3425608,6.667282,3.003049,-1.61784,0.2130915,-1.194497,-0.4781485,172.17.160.76,0.0.0.0,4,running,0,2014-11-13 21:45:23.285,683,2014-11-13 21:44:53.658,0
2014-11-13 21:45:25.020,17155,571.8334,40.10425,-88.22172,231,-1,-1,10,165,1415935777,0.7992554,-0.7329254,-0.03710938,24.95343,19.59106,9.922211,79.74503,82.82822,10,6.933821,3.101595,-0.6974715,2.504988,2.193865,-0.4915715,6.952199,3.132096,-0.971785,0.1548092,-1.268597,-0.5456244,172.17.160.76,0.0.0.0,4,running,0,2014-11-13 21:45:23.285,683,2014-11-13 21:44:53.658,0
2014-11-13 21:45:25.053,17156,571.8667,40.10425,-88.22172,231,-1,-1,10,165,1415935777,0.73172,-0.5666656,-0.0789032,24.5744,21.41681,8.414612,97.28258,100.3658,10,7.094822,2.872039,0.2953254,2.239548,2.172118,-0.6660038,7.098105,3.016884,0.106589,0.1244097,-1.302266,-0.4688054,172.17.160.76,0.0.0.0,4,running,0,2014-11-13 21:45:23.285,683,2014-11-13 21:44:53.658,0
2014-11-13 21:45:25.087,17157,571.9,40.10425,-88.22172,231,-1,-1,10,165,1415935777,0.6500092,-0.5029755,-0.169281,23.0583,23.8282,4.059357,124.2059,127.2891,10,7.018765,2.665403,1.071527,1.987845,2.092442,-0.7691488,7.154576,2.811469,0.7708449,0.09831022,-1.218015,-0.4690281,172.17.160.76,0.0.0.0,4,running,0,2014-11-13 21:45:23.285,683,2014-11-13 21:44:53.658,0
2014-11-13 21:45:25.120,17158,571.9333,40.10425,-88.22172,231,-1,-1,10,165,1415935777,0.5376587,-0.4588928,-0.4334106,23.60961,24.24158,-0.8988647,142.9884,146.0716,10,6.485623,2.362012,2.093071,1.692635,1.959815,-0.8261004,6.798567,2.54164,1.745197,-0.04716725,-1.229709,-0.5313946,172.17.160.76,0.0.0.0,4,running,0,2014-11-13 21:45:23.285,683,2014-11-13 21:44:53.658,0
2014-11-13 21:45:25.153,17159,571.9667,40.10425,-88.22172,231,-1,-1,10,165,1415935777,0.5552979,-0.3267517,-0.6325378,24.29875,23.48373,-3.109955,151.0361,154.1193,10,5.405513,1.62846,3.386138,1.393844,1.809049,-0.8172317,5.993369,2.104768,2.803148,-0.1230744,-1.149085,-0.6575631,172.17.160.76,0.0.0.0,4,running,0,2014-11-13 21:45:23.285,683,2014-11-13 21:44:53.658,0
2014-11-13 21:45:25.187,17160,572,40.10425,-88.22172,231,-1,-1,10,165,1415935777,0.6390533,-0.1891632,-0.8491211,27.39986,20.10778,-6.594147,159.0832,162.1664,10,4.707304,0.5326578,4.149372,1.064962,1.64332,-0.714667,5.08658,1.14708,3.833261,-0.1363064,-0.8832102,-0.7773706,172.17.160.76,0.0.0.0,4,running,0,2014-11-13 21:45:23.285,683,2014-11-13 21:44:53.658,0
2014-11-13 21:45:25.220,17161,572.0334,40.10425,-88.22172,231,-1,-1,10,165,1415935777,0.5959625,-0.2424316,-0.9302063,28.91596,17.48971,-8.00119,161.3773,164.4604,10,4.409072,0.2771749,4.350825,0.9350973,1.577883,-0.6378275,4.770684,0.5992938,4.16168,-0.1643178,-0.7846146,-0.8548145,172.17.160.76,0.0.0.0,4,running,0,2014-11-13 21:45:23.285,683,2014-11-13 21:44:53.658,0
2014-11-13 21:45:25.253,17162,572.0667,40.10425,-88.22172,231,-1,-1,10,165,1415935777,0.4576569,-0.0789032,-1.263687,31.1901,10.87562,-10.34628,164.7386,167.8218,10,3.243883,-0.114591,4.602573,0.7511343,1.48822,-0.451213,3.656001,0.01327748,4.584176,-0.2237414,-0.6296915,-1.012015,172.17.160.76,0.0.0.0,4,running,0,2014-11-13 21:45:23.285,683,2014-11-13 21:44:53.658,0
2014-11-13 21:45:25.287,17163,572.1,40.10425,-88.22172,231,-1,-1,10,165,1415935777,0.6362915,-0.2121582,-1.394409,32.25826,3.744797,-11.85385,161.3245,164.4077,10,2.691359,-0.2114992,4.680559,0.6345577,1.445854,-0.253228,2.891197,-0.05019305,4.715145,-0.49552,-0.3695337,-1.196556,172.17.160.76,0.0.0.0,4,running,0,2014-11-13 21:45:23.285,683,2014-11-13 21:44:53.658,0
2014-11-13 21:45:25.320,17164,572.1334,40.10425,-88.22172,231,-1,-1,10,165,1415935777,0.5538483,-0.4187164,-1.417007,32.43054,-0.2167664,-11.95438,160.0814,163.1646,10,2.364167,-1.74777,4.967724,0.5574947,1.409636,-0.05179202,2.434633,-1.328355,4.840686,-0.297852,-0.3420673,-1.346801,172.17.160.76,0.0.0.0,4,running,0,2014-11-13 21:45:23.285,683,2014-11-13 21:44:53.658,0
2014-11-13 21:45:25.353,17165,572.1667,40.10425,-88.22172,231,-1,-1,10,165,1415935777,0.6673584,-0.7692719,-1.378708,30.67324,-7.623169,-12.45694,153.4013,156.4845,10,2.391332,-2.116882,5.056966,0.5271301,1.375281,0.05480082,2.452914,-1.871171,5.003351,-0.4256268,-0.363943,-1.223027,172.17.160.76,0.0.0.0,4,running,0,2014-11-13 21:45:23.285,683,2014-11-13 21:44:53.658,0
2014-11-13 21:45:25.387,17166,572.2,40.10425,-88.22172,231,-1,-1,10,165,1415935777,0.2536011,-1.613693,-1.118729,27.43431,-14.99514,-13.59598,142.617,145.7002,10,1.508035,-3.016129,5.382475,0.4872305,1.284608,0.2815992,1.96236,-2.889331,5.507214,-0.2062549,-0.7234506,-1.076661,172.17.160.76,0.0.0.0,4,running,0,2014-11-13 21:45:23.285,683,2014-11-13 21:44:53.658,0
2014-11-13 21:45:25.420,17167,572.2333,40.10425,-88.22172,231,-1,-1,10,165,1415935777,0.06806946,-1.790833,-1.156723,21.74895,-21.0925,-14.29953,134.6725,137.7557,10,0.3505761,-1.426291,5.343168,0.5043356,1.198156,0.4456679,0.7908925,-2.077333,5.319502,-0.7366818,-1.299683,-0.7391281,172.17.160.76,0.0.0.0,4,running,0,2014-11-13 21:45:23.285,683,2014-11-13 21:44:53.658,0
2014-11-13 21:45:25.453,17168,572.2667,40.10425,-88.22172,231,-1,-1,10,165,1415935777,0.2127228,-2.183273,-1.24968,18.02762,-23.435,-14.76852,130.0202,133.1033,10,-0.6008869,-0.007498397,5.884943,0.5742759,1.134284,0.5973927,-0.2406506,-0.292503,5.642716,-0.6213474,-1.349529,-0.8464112,172.17.160.76,0.0.0.0,4,running,0,2014-11-13 21:45:23.285,683,2014-11-13 21:44:53.658,0
2014-11-13 21:45:25.487,17169,572.3,40.10425,-88.22172,231,-1,-1,10,165,1415935777,-0.2056885,-2.637314,-1.099503,10.24039,-26.46645,-14.76846,118.6804,121.7636,10,-1.869234,1.283293,6.482428,0.7657275,1.019048,0.7964858,-1.312562,0.5072433,6.374872,-0.5138916,-1.647722,-0.8480828,172.17.160.76,0.0.0.0,4,running,0,2014-11-13 21:45:23.285,683,2014-11-13 21:44:53.658,0
2014-11-13 21:45:25.520,17170,572.3334,40.10425,-88.22172,231,-1,-1,10,165,1415935777,-0.305954,-3.182312,-0.936676,2.97002,-27.60326,-15.00296,109.9858,113.069,10,-3.081821,3.672971,6.545197,1.006046,0.8739876,0.9237449,-2.092283,2.062482,6.562188,-0.7047129,-2.071062,-0.7046224,172.17.160.76,0.0.0.0,4,running,0,2014-11-13 21:45:23.285,683,2014-11-13 21:44:53.658,0
2014-11-13 21:45:25.554,17171,572.3667,40.10425,-88.22172,231,-1,-1,10,165,1415935777,-0.2325439,-3.594406,-0.6813202,0.3168488,-27.01764,-15.30447,95.38695,98.47014,10,-4.953825,6.616442,6.593183,1.360655,0.6876538,1.000469,-3.610588,4.694434,6.607209,-0.7308614,-2.459865,-0.417373,172.17.160.76,0.0.0.0,4,running,0,2014-11-13 21:45:23.285,683,2014-11-13 21:44:53.658,0
2014-11-13 21:45:25.587,17172,572.4,40.10425,-88.22172,231,-1,-1,10,165,1415935777,-0.01164246,-4.002258,-0.4729004,-2.198494,-24.22732,-17.34811,73.48659,76.56978,10,-7.603103,9.246516,5.188198,1.959867,0.4572388,0.9671705,-6.177923,8.223104,6.134164,-0.3769667,-2.968328,-0.1307849,172.17.160.76,0.0.0.0,4,running,0,2014-11-13 21:45:23.285,683,2014-11-13 21:44:53.658,0
2014-11-13 21:45:25.620,17173,572.4333,40.10425,-88.22172,231,-1,-1,10,165,1415935777,0.01835632,-4.099075,-0.04481506,-1.199245,-21.5059,-19.39169,59.98901,63.0722,10,-9.033101,10.36127,3.844972,2.228309,0.4198972,0.8864998,-7.539882,9.313281,5.200286,-0.2693399,-3.227394,0.1043152,172.17.160.76,0.0.0.0,4,running,0,2014-11-13 21:45:23.285,683,2014-11-13 21:44:53.658,0
2014-11-13 21:45:25.653,17174,572.4667,40.10425,-88.22172,231,-1,-1,10,165,1415935777,0.8987427,-3.41922,-0.1421356,5.244164,-14.71956,-21.97141,31.98699,35.07018,10,-11.60302,11.62424,-0.184062,2.721102,0.6256438,0.5379713,-11.0813,11.63359,0.8407839,-0.2201857,-3.340831,0.7800142,172.17.160.76,0.0.0.0,4,running,0,2014-11-13 21:45:23.285,683,2014-11-13 21:44:53.658,0
2014-11-13 21:45:25.687,17175,572.5,40.10425,-88.22172,231,-1,-1,10,165,1415935777,1.725037,-3.128159,-0.5671082,15.8913,-5.246246,-19.92776,5.3323,8.415491,10,-12.56885,9.149964,-3.294064,2.96016,0.8674715,0.2586501,-12.1657,10.18571,-2.281414,0.732065,-3.027,0.07710196,172.17.160.76,0.0.0.0,4,running,0,2014-11-13 21:45:23.285,683,2014-11-13 21:44:53.658,0
2014-11-13 21:45:25.720,17176,572.5334,40.10425,-88.22172,231,-1,-1,10,165,1415935777,1.995514,-1.970886,-1.088593,23.81635,5.84613,-11.61942,351.6403,354.7235,10,-13.56279,6.877385,-6.572735,-3.067845,1.100664,-0.05039947,-13.0282,7.789869,-4.988027,0.9615221,-2.521096,-0.4422238,172.17.160.76,0.0.0.0,4,running,0,2014-11-13 21:45:23.285,683,2014-11-13 21:44:53.658,0
2014-11-13 21:45:25.753,17177,572.5667,40.10425,-88.22172,231,-1,-1,10,165,1415935777,1.40416,-1.688705,-1.901489,25.43582,11.32343,-5.421539,347.7608,350.844,10,-13.53063,5.7314,-9.043652,-2.604895,1.5027,-0.4573313,-13.64394,6.430074,-7.954416,1.040575,-2.020718,-1.476394,172.17.160.76,0.0.0.0,4,running,0,2014-11-13 21:45:23.285,683,2014-11-13 21:44:53.658,0
2014-11-13 21:45:25.787,17178,572.6,40.10425,-88.22172,231,-1,-1,10,165,1415935777,0.8295135,-1.048996,-1.650803,21.95569,19.00542,8.07962,346.9553,350.0385,10,-13.01833,5.107407,-9.753679,-2.275276,1.793022,-0.6099828,-13.46741,5.798162,-9.031564,0.6046576,-2.261559,-2.082143,172.17.160.76,0.0.0.0,4,running,0,2014-11-13 21:45:23.285,683,2014-11-13 21:44:53.658,0
2014-11-13 21:45:25.820,17179,572.6334,40.10425,-88.22172,231,-1,-1,10,165,1415935777,1.036041,0.3720093,-1.077866,12.23888,19.21211,21.01123,346.3246,349.4077,10,-9.687125,4.147141,-10.63632,-1.47203,2.497126,-0.6626827,-11.76564,4.767005,-10.11759,0.2279075,-1.313293,-1.902756,172.17.160.76,0.0.0.0,4,running,0,2014-11-13 21:45:23.285,683,2014-11-13 21:44:53.658,0
2014-11-13 21:45:25.854,17180,572.6667,40.10425,-88.22172,231,-1,-1,10,165,1415935777,2.245361,-0.1219025,-1.09166,6.140041,16.284,25.80194,267.4762,270.5594,10,-6.003103,5.352737,-12.01308,-0.9710739,2.91067,-0.5255578,-8.246321,4.28023,-11.04302,0.8380534,-0.1296863,-1.919948,172.17.160.76,0.0.0.0,4,running,0,2014-11-13 21:45:23.285,683,2014-11-13 21:44:53.658,0
2014-11-13 21:45:25.887,17181,572.7,40.10425,-88.22172,231,-1,-1,10,165,1415935777,2.569443,-0.8894653,-1.139923,-5.127319,7.361855,31.12875,224.3868,227.47,10,-3.290247,2.016697,-11.36676,-0.4380626,-2.956935,-0.2988628,-4.216397,4.22127,-12.55405,2.581019,-0.7916718,-2.125216,172.17.160.76,0.0.0.0,4,running,1,2014-11-13 21:45:25.759,683,2014-11-13 21:44:53.658,0
2014-11-13 21:45:25.920,17182,572.7333,40.10425,-88.22172,231,-1,-1,10,165,1415935777,1.776718,-1.289413,-0.4738312,-9.15876,2.43573,32.16733,207.8882,210.9714,10,-1.376405,-0.9210383,-8.673065,-0.03976699,-2.809147,-0.06234903,-1.950966,0.2011971,-9.359979,2.629722,-1.137534,-2.032415,172.17.160.76,0.0.0.0,4,running,1,2014-11-13 21:45:25.759,683,2014-11-13 21:44:53.658,0
2014-11-13 21:45:25.953,17183,572.7667,40.10425,-88.22172,231,-1,-1,10,165,1415935777,1.442368,-1.195267,0.278183,-11.53628,-5.108467,32.46884,183.8382,186.9214,10,0.3244148,-2.402782,-7.084399,0.1866752,-2.848402,0.04083125,-0.186329,-2.104742,-7.579517,1.876215,-1.297544,-1.146302,172.17.160.76,0.0.0.0,4,running,1,2014-11-13 21:45:25.759,683,2014-11-13 21:44:53.658,0
2014-11-13 21:45:25.987,17184,572.8,40.10425,-88.22172,231,-1,-1,10,165,1415935777,1.072693,-1.50621,0.7718201,-8.19397,-9.345627,33.17242,168.5009,171.5841,10,0.9733116,-3.066028,-5.37709,0.3228723,-2.903285,0.06787845,0.8335148,-2.45934,-6.48763,1.677882,-1.12744,-0.6913181,172.17.160.76,0.0.0.0,4,running,1,2014-11-13 21:45:25.759,683,2014-11-13 21:44:53.658,0
2014-11-13 21:45:26.021,17185,572.8334,40.10425,-88.22172,231,-1,-1,10,165,1415935777,0.6625824,-1.502396,1.156174,-1.647186,-10.0346,33.44046,154.1389,157.2221,10,0.4272192,-3.723524,-3.686505,0.5371658,-3.039831,0.06672677,0.8414155,-3.441447,-4.409143,1.083812,-1.435657,-0.0481396,172.17.160.76,0.0.0.0,4,running,1,2014-11-13 21:45:25.759,683,2014-11-13 21:44:53.658,0
2014-11-13 21:45:26.053,17186,572.8667,40.10425,-88.22172,231,-1,-1,10,165,1415935777,0.4541779,-1.12973,1.336502,1.729572,-9.827904,33.30643,148.8145,151.8977,10,0.1191421,-2.872252,-2.413459,0.6813034,3.090904,0.05195925,0.2634979,-3.481324,-2.966758,0.4832304,-1.284597,0.2643052,172.17.160.76,0.0.0.0,4,running,1,2014-11-13 21:45:25.759,683,2014-11-13 21:44:53.658,0
2014-11-13 21:45:26.087,17187,572.9,40.10425,-88.22172,231,-1,-1,10,165,1415935777,0.3230743,-0.8068542,1.327667,7.69059,-8.484413,32.60287,140.5472,143.6304,10,-0.04627882,-2.25265,-1.841684,0.7328328,3.027281,0.04341008,0.1823572,-2.805494,-2.401372,0.3402227,-1.086334,0.3439644,172.17.160.76,0.0.0.0,4,running,1,2014-11-13 21:45:25.759,683,2014-11-13 21:44:53.658,0
2014-11-13 21:45:26.120,17188,572.9333,40.10425,-88.22172,231,-1,-1,10,165,1415935777,0.4174957,-0.5233612,1.141235,10.13702,-7.829895,31.89935,135.8435,138.9267,10,0.02314686,-1.510982,-0.9899143,0.7892365,2.956984,0.03336386,-0.01675521,-1.90002,-1.543488,0.139615,-0.7734966,0.3452061,172.17.160.76,0.0.0.0,4,running,1,2014-11-13 21:45:25.759,683,2014-11-13 21:44:53.658,0
2014-11-13 21:45:26.153,17189,572.9667,40.10425,-88.22172,231,-1,-1,10,165,1415935777,0.5139923,-0.4941864,1.0495,13.03138,-7.209824,30.89432,133.3988,136.482,10,0.03139334,-1.455445,0.1779775,0.8235071,2.897852,0.02174636,0.2072575,-1.275021,-0.3712826,0.2080175,-0.4808341,0.1177391,172.17.160.76,0.0.0.0,4,running,1,2014-11-13 21:45:25.759,683,2014-11-13 21:44:53.658,0
2014-11-13 21:45:26.187,17190,573,40.10425,-88.22172,231,-1,-1,10,165,1415935777,0.461441,-0.3666687,0.9670868,15.20216,-7.175385,29.38678,131.0852,134.1684,10,-0.08317931,-1.388652,0.7158681,0.8193064,2.856843,0.01960067,0.01290253,-1.43378,0.4056139,0.2331294,-0.474587,0.08995175,172.17.160.76,0.0.0.0,4,running,1,2014-11-13 21:45:25.759,683,2014-11-13 21:44:53.658,0
2014-11-13 21:45:26.219,17191,573.0334,40.10425,-88.22172,231,-1,-1,10,165,1415935777,0.5848389,-0.3531952,0.8260803,15.71901,-7.209824,28.95123,132.636,135.7191,10,0.3393967,-0.5898513,1.133532,0.7905328,2.80843,0.02739165,0.1907903,-0.8889632,0.9449265,0.138391,-0.3242964,-0.0222493,172.17.160.76,0.0.0.0,4,running,1,2014-11-13 21:45:25.759,683,2014-11-13 21:44:53.658,0
2014-11-13 21:45:26.253,17192,573.0667,40.10425,-88.22172,231,-1,-1,10,165,1415935777,0.6953888,-0.3106842,0.729187,17.02837,-7.485405,27.81219,133.7646,136.8477,10,0.3838449,-0.8025063,1.540916,0.7405118,2.786648,0.02911261,0.4380121,-0.5763636,1.411637,0.2889157,-0.3043723,-0.1297733,172.17.160.76,0.0.0.0,4,running,1,2014-11-13 21:45:25.759,683,2014-11-13 21:44:53.658,0
2014-11-13 21:45:26.287,17193,573.1,40.10425,-88.22172,231,-1,-1,10,165,1415935777,0.6514435,-0.3701782,0.7288361,17.68305,-8.208824,27.44373,136.4477,139.5309,10,0.473839,-1.224173,1.992673,0.6887627,2.762367,0.03417492,0.485316,-1.056445,1.864308,0.3192244,-0.2981987,-0.1355932,172.17.160.76,0.0.0.0,4,running,1,2014-11-13 21:45:25.759,683,2014-11-13 21:44:53.658,0
2014-11-13 21:45:26.320,17194,573.1334,40.10425,-88.22172,231,-1,-1,10,165,1415935777,0.7169037,-0.2839355,0.7025757,18.26881,-8.725555,27.3432,136.5645,139.6477,10,0.8788434,-1.156521,2.394876,0.6232013,2.73001,0.04096829,0.7974528,-1.148137,2.266019,0.2880956,-0.2962472,-0.1940705,172.17.160.76,0.0.0.0,4,running,1,2014-11-13 21:45:25.759,683,2014-11-13 21:44:53.658,0
2014-11-13 21:45:26.354,17195,573.1667,40.10425,-88.22172,231,-1,-1,10,165,1415935777,0.7087708,-0.3126678,0.6503906,18.64784,-9.655663,26.9747,143.4579,146.5411,10,1.220434,-1.05561,2.976882,0.5411168,2.700773,0.04443013,1.153135,-1.098917,2.757474,0.278711,-0.2487211,-0.2040161,172.17.160.76,0.0.0.0,4,running,1,2014-11-13 21:45:25.759,683,2014-11-13 21:44:53.658,0
2014-11-13 21:45:26.387,17196,573.2,40.10425,-88.22172,231,-1,-1,10,165,1415935777,0.8437347,-0.3135834,0.4753418,18.82012,-10.44798,26.87421,147.0143,150.0975,10,1.597323,-1.167931,3.465283,0.409107,2.667762,0.05055674,1.49622,-0.9053925,3.221076,0.2876626,-0.2609425,-0.2926054,172.17.160.76,0.0.0.0,4,running,1,2014-11-13 21:45:25.759,683,2014-11-13 21:44:53.658,0
2014-11-13 21:45:26.420,17197,573.2333,40.10425,-88.22172,231,-1,-1,10,165,1415935777,0.747406,-0.2239838,0.5884705,18.33773,-10.58576,26.60623,153.673,156.7562,10,1.732043,-1.314302,3.649767,0.29465,2.641774,0.0556544,1.669578,-1.224365,3.628479,0.3726565,-0.243645,-0.3359357,172.17.160.76,0.0.0.0,4,running,1,2014-11-13 21:45:25.759,683,2014-11-13 21:44:53.658,0
