time,timestamp,recordtime,lat,long,alt,speed,course,verticalAccuracy,horizontalAccuracy,locTimeStamp,accelerationX,accelerationY,accelerationZ,HeadingX,HeadingY,HeadingZ,TrueHeading,MagneticHeading,HeadingAccuracy,RotationX,RotationY,RotationZ,motionYaw,motionRoll,motionPitch,motionRotationRateX,motionRotationRateY,motionRotationRateZ,motionUserAccelerationX,motionUserAccelerationY,motionUserAccelerationZ,en0,pdp_ip0,DeviceOrientation,Activity,Activity Confidence,Activity Start,Steps,Last Step Date,State
2014-11-13 21:45:12.987,16794,559.8,40.10425,-88.22172,231,-1,-1,10,165,1415935777,0.8306885,-0.5403137,-0.03056335,38.4598,-6.966377,2.727783,308.8852,311.9684,10,-0.07985728,-0.05769206,-0.04670998,-2.980083,1.518158,0.5698201,-0.01663448,0.01250906,-0.04101058,-0.006191288,0.005224614,0.01216608,172.17.160.76,0.0.0.0,4,unknown,1,2014-11-13 21:45:11.532,683,2014-11-13 21:44:53.658,0
2014-11-13 21:45:13.020,16795,559.8334,40.10425,-88.22172,231,-1,-1,10,165,1415935777,0.8353729,-0.5421753,-0.03451538,38.2875,-6.863029,2.62735,308.8835,311.9667,10,-0.07239723,-0.05662519,-0.04567081,-2.979983,1.518638,0.5691683,-0.01666956,0.007277263,-0.03042301,-0.007936704,0.001044129,0.01272678,172.17.160.76,0.0.0.0,4,unknown,1,2014-11-13 21:45:11.532,683,2014-11-13 21:44:53.658,0
2014-11-13 21:45:13.053,16796,559.8667,40.10425,-88.22172,231,-1,-1,10,165,1415935777,0.8346863,-0.545105,-0.03434753,37.83955,-7.310867,2.593842,308.8648,311.948,10,-0.08522515,-0.04801413,-0.03177817,-2.979929,1.519618,0.5683491,-0.01346172,0.01799337,-0.0231942,-0.006314291,-0.003933856,0.008598273,172.17.160.76,0.0.0.0,4,unknown,1,2014-11-13 21:45:11.532,683,2014-11-13 21:44:53.658,0
2014-11-13 21:45:13.087,16797,559.9,40.10425,-88.22172,231,-1,-1,10,165,1415935777,0.8387909,-0.5392609,-0.03710938,37.66725,-7.276413,2.62735,308.8517,311.9349,10,-0.08096009,-0.05547045,-0.03395637,-2.9792,1.520648,0.5681851,-0.01774645,0.01485735,-0.01682261,-0.002952136,0.0005055327,0.007369861,172.17.160.76,0.0.0.0,4,unknown,1,2014-11-13 21:45:11.532,683,2014-11-13 21:44:53.658,0
2014-11-13 21:45:13.120,16798,559.9333,40.10425,-88.22172,231,-1,-1,10,165,1415935777,0.8382568,-0.5372314,-0.03717041,37.70171,-7.035271,3.062683,308.8313,311.9145,10,-0.0724236,-0.05336549,-0.03610021,-2.978827,1.520884,0.5677206,-0.01455021,0.007410307,-0.01793508,-0.0003429673,0.00075484,0.006085064,172.17.160.76,0.0.0.0,4,unknown,1,2014-11-13 21:45:11.532,683,2014-11-13 21:44:53.658,0
2014-11-13 21:45:13.153,16799,559.9667,40.10425,-88.22172,231,-1,-1,10,165,1415935777,0.8368835,-0.5306244,-0.02989197,37.4605,-6.863029,3.163147,308.7968,311.8799,10,-0.06819849,-0.07562632,-0.02880289,-2.978661,1.521061,0.5672656,-0.0103176,-0.01380333,-0.01275503,-0.009505778,0.003682355,0.006848443,172.17.160.76,0.0.0.0,4,unknown,1,2014-11-13 21:45:11.532,683,2014-11-13 21:44:53.658,0
2014-11-13 21:45:13.187,16800,560,40.10425,-88.22172,231,-1,-1,10,165,1415935777,0.8493347,-0.532074,-0.0358429,37.4605,-7.000824,3.230072,308.7698,311.853,10,-0.05534262,-0.04278794,-0.04141589,-2.979084,1.521875,0.5666804,0.007874513,0.02540972,-0.02535488,-0.002849775,0.004806146,0.009779166,172.17.160.76,0.0.0.0,4,unknown,1,2014-11-13 21:45:11.532,683,2014-11-13 21:44:53.658,0
2014-11-13 21:45:13.220,16801,560.0334,40.10425,-88.22172,231,-1,-1,10,165,1415935777,0.841507,-0.5297089,-0.03599548,37.18484,-7.069717,3.230072,308.7029,311.7861,10,-0.06176377,-0.07998379,-0.04264919,-2.979522,1.522878,0.5657536,0.002576102,0.009446227,-0.03098639,0.0061189,0.003978225,0.004593779,172.17.160.76,0.0.0.0,4,unknown,1,2014-11-13 21:45:11.532,683,2014-11-13 21:44:53.658,0
2014-11-13 21:45:13.253,16802,560.0667,40.10425,-88.22172,231,-1,-1,10,165,1415935777,0.8401642,-0.5321045,-0.03697205,37.63279,-6.966377,3.26358,308.6488,311.732,10,-0.04683089,-0.05659004,-0.03939747,-2.979944,1.522965,0.5643478,0.01000535,-0.009635668,-0.02474761,-0.002998354,0.01225134,0.008126862,172.17.160.76,0.0.0.0,4,unknown,1,2014-11-13 21:45:11.532,683,2014-11-13 21:44:53.658,0
2014-11-13 21:45:13.287,16803,560.1,40.10425,-88.22172,231,-1,-1,10,165,1415935777,0.8375397,-0.5300446,-0.03152466,38.08075,-6.58744,3.029175,308.6293,311.7125,10,-0.06606238,-0.06179759,-0.0266151,-2.980676,1.523814,0.5635926,0.01106068,0.005296987,-0.01724284,-0.0042443,0.002122149,0.002729436,172.17.160.76,0.0.0.0,4,unknown,1,2014-11-13 21:45:11.532,683,2014-11-13 21:44:53.658,0
2014-11-13 21:45:13.319,16804,560.1334,40.10425,-88.22172,231,-1,-1,10,165,1415935777,0.8459778,-0.5229034,-0.03271484,38.11521,-6.552994,2.861755,308.6298,311.713,10,-0.06707411,-0.04915769,-0.0414055,-2.980839,1.524185,0.5632017,-0.008141721,1.820294e-05,-0.01401458,-0.00709203,0.00385157,0.007873483,172.17.160.76,0.0.0.0,4,unknown,1,2014-11-13 21:45:11.532,683,2014-11-13 21:44:53.658,0
2014-11-13 21:45:13.353,16805,560.1667,40.10425,-88.22172,231,-1,-1,10,165,1415935777,0.8456573,-0.5231628,-0.02989197,37.90846,-6.759682,2.794769,308.6343,311.7175,10,-0.0681921,-0.0713839,-0.02984205,-2.980997,1.525149,0.5617182,0.000440907,0.008485891,-0.02062798,0.002684917,0.01100418,0.004760112,172.17.160.76,0.0.0.0,4,unknown,1,2014-11-13 21:45:11.532,683,2014-11-13 21:44:53.658,0
2014-11-13 21:45:13.387,16806,560.2,40.10425,-88.22172,231,-1,-1,10,165,1415935777,0.838974,-0.5175018,-0.02735901,37.66726,-6.380753,2.962189,308.6349,311.7181,10,-0.07459567,-0.05539375,-0.02336498,-2.981169,1.525753,0.5606796,-0.01238803,0.005394735,-0.008922761,-0.004451653,0.01117779,0.01161455,172.17.160.76,0.0.0.0,4,unknown,1,2014-11-13 21:45:11.532,683,2014-11-13 21:44:53.658,0
2014-11-13 21:45:13.420,16807,560.2333,40.10425,-88.22172,231,-1,-1,10,165,1415935777,0.8547668,-0.5260162,-0.03219604,37.42605,-6.415199,3.26358,308.6201,311.7033,10,-0.05749312,-0.02038437,-0.02961355,-2.981269,1.526888,0.5599047,-0.001688895,0.04255813,-0.01195394,0.004798753,0.009529512,0.009939646,172.17.160.76,0.0.0.0,4,unknown,1,2014-11-13 21:45:11.532,683,2014-11-13 21:44:53.658,0
2014-11-13 21:45:13.453,16808,560.2667,40.10425,-88.22172,231,-1,-1,10,165,1415935777,0.8539886,-0.5276184,-0.02931213,37.39159,-6.174049,3.297089,308.5953,311.6785,10,-0.05855519,-0.05765478,-0.04042066,-2.981677,1.528417,0.5589938,0.005777921,0.01805938,-0.01954326,0.01074489,0.002715032,0.004729157,172.17.160.76,0.0.0.0,4,unknown,1,2014-11-13 21:45:11.532,683,2014-11-13 21:44:53.658,0
2014-11-13 21:45:13.487,16809,560.3,40.10425,-88.22172,231,-1,-1,10,165,1415935777,0.838028,-0.5171967,-0.02388,37.66725,-6.587433,3.431061,308.5772,311.6604,10,-0.06385035,-0.06625678,-0.0542454,-2.981953,1.528866,0.5582634,0.003665329,-0.003278775,-0.03132505,0.006557837,0.002095596,0.00624198,172.17.160.76,0.0.0.0,4,walking,0,2014-11-13 21:45:13.387,683,2014-11-13 21:44:53.658,0
2014-11-13 21:45:13.520,16810,560.3334,40.10425,-88.22172,231,-1,-1,10,165,1415935777,0.8398438,-0.5198669,-0.02645874,38.14967,-7.138611,3.029175,308.5652,311.6484,10,-0.04887833,-0.03763792,-0.06264261,-2.982853,1.530269,0.5560848,0.006936543,0.01473827,-0.04103854,-0.01470756,0.01050048,0.008395207,172.17.160.76,0.0.0.0,4,walking,0,2014-11-13 21:45:13.387,683,2014-11-13 21:44:53.658,0
2014-11-13 21:45:13.553,16811,560.3667,40.10425,-88.22172,231,-1,-1,10,165,1415935777,0.8417206,-0.5210114,-0.02485657,38.39088,-7.173058,3.330566,308.5411,311.6243,10,-0.05531945,-0.04603966,-0.04992495,-2.983383,1.531295,0.5551476,0.01442826,0.0274388,-0.04736888,-0.009315959,0.007201841,0.007101446,172.17.160.76,0.0.0.0,4,walking,0,2014-11-13 21:45:13.387,683,2014-11-13 21:44:53.658,0
2014-11-13 21:45:13.587,16812,560.4,40.10425,-88.22172,231,-1,-1,10,165,1415935777,0.844986,-0.5252533,-0.03031921,38.25304,-6.897469,3.129669,308.5394,311.6226,10,-0.05004586,-0.04057752,-0.02974777,-2.984202,1.532894,0.5538493,0.01326938,0.01809304,-0.01875401,-0.00684727,0.003702453,0.004625086,172.17.160.76,0.0.0.0,4,walking,0,2014-11-13 21:45:13.387,683,2014-11-13 21:44:53.658,0
2014-11-13 21:45:13.620,16813,560.4333,40.10425,-88.22172,231,-1,-1,10,165,1415935777,0.848114,-0.5299988,-0.02661133,38.28751,-6.174065,3.497986,308.5267,311.6099,10,-0.05640788,-0.03320802,-0.03923848,-2.984624,1.533735,0.5536532,0.0132616,0.02450114,-0.01447406,-0.00650413,0.001872417,0.00479903,172.17.160.76,0.0.0.0,4,walking,0,2014-11-13 21:45:13.387,683,2014-11-13 21:44:53.658,0
2014-11-13 21:45:13.653,16814,560.4667,40.10425,-88.22172,231,-1,-1,10,165,1415935777,0.8447418,-0.5290833,-0.02485657,38.39088,-6.139618,2.995667,308.546,311.6292,10,-0.06281065,-0.08003119,-0.04901442,-2.985179,1.535371,0.5528257,0.002640101,0.004181691,-0.03258521,0.005034876,-0.003424506,0.001806853,172.17.160.76,0.0.0.0,4,walking,0,2014-11-13 21:45:13.387,683,2014-11-13 21:44:53.658,0
2014-11-13 21:45:13.687,16815,560.5,40.10425,-88.22172,231,-1,-1,10,165,1415935777,0.8383484,-0.5199432,-0.02532959,38.39088,-6.070732,3.129639,308.558,311.6412,10,-0.05746915,-0.06941583,-0.05004,-2.985421,1.53515,0.5515581,0.005879971,-0.007515267,-0.03712072,-0.004442584,0.003919043,0.007374379,172.17.160.76,0.0.0.0,4,walking,0,2014-11-13 21:45:13.387,683,2014-11-13 21:44:53.658,0
2014-11-13 21:45:13.720,16816,560.5334,40.10425,-88.22172,231,-1,-1,10,165,1415935777,0.8401489,-0.5149231,-0.02876282,38.32196,-6.070732,2.92868,308.5896,311.6728,10,-0.05321608,-0.05448561,-0.04254693,-2.985838,1.535601,0.5506124,0.01120229,0.01166505,-0.02960913,-0.01006273,0.008270853,0.00200304,172.17.160.76,0.0.0.0,4,walking,0,2014-11-13 21:45:13.387,683,2014-11-13 21:44:53.658,0
2014-11-13 21:45:13.753,16817,560.5667,40.10425,-88.22172,231,-1,-1,10,165,1415935777,0.8469849,-0.5183411,-0.0315094,38.21859,-6.311874,2.828186,308.6321,311.7153,10,-0.04790734,-0.05336975,-0.03513056,-2.985945,1.535756,0.5502942,0.01012884,0.01061871,-0.02748784,-0.01195794,0.00967814,-0.001296887,172.17.160.76,0.0.0.0,4,walking,0,2014-11-13 21:45:13.387,683,2014-11-13 21:44:53.658,0
2014-11-13 21:45:13.787,16818,560.6,40.10425,-88.22172,231,-1,-1,10,165,1415935777,0.8473206,-0.5183868,-0.02668762,38.14967,-6.449661,2.828186,308.6516,311.7348,10,-0.04471554,-0.06187216,-0.03518728,-2.987126,1.537001,0.5492046,0.02077118,0.01278571,-0.02114785,-0.008580898,0.003789952,-0.002506203,172.17.160.76,0.0.0.0,4,walking,0,2014-11-13 21:45:13.387,683,2014-11-13 21:44:53.658,0
2014-11-13 21:45:13.820,16819,560.6334,40.10425,-88.22172,231,-1,-1,10,165,1415935777,0.8604889,-0.5175323,-0.02879333,37.59834,-6.72525,2.694244,308.6999,311.7831,10,-0.0382848,-0.05876744,-0.04580983,-2.987778,1.537436,0.5486903,0.01758621,0.005300842,-0.02754354,-0.005413049,0.003183416,0.00177049,172.17.160.76,0.0.0.0,4,walking,0,2014-11-13 21:45:13.387,683,2014-11-13 21:44:53.658,0
2014-11-13 21:45:13.853,16820,560.6667,40.10425,-88.22172,231,-1,-1,10,165,1415935777,0.8338776,-0.519165,-0.02308655,37.63279,-6.277428,3.196564,308.7133,311.7965,10,-0.06072806,-0.1033296,-0.03853008,-2.988694,1.538077,0.547549,0.02615986,-0.002125885,-0.02886935,0.007142811,0.003063767,-0.0008621612,172.17.160.76,0.0.0.0,4,walking,0,2014-11-13 21:45:13.387,683,2014-11-13 21:44:53.658,0
2014-11-13 21:45:13.887,16821,560.7,40.10425,-88.22172,231,-1,-1,10,165,1415935777,0.849823,-0.507019,-0.02412415,37.63279,-6.208519,3.464417,308.7101,311.7933,10,-0.0543197,-0.057585,-0.03088281,-2.989031,1.537153,0.5469304,-0.003740257,-0.03072894,-0.01935328,-0.02107634,0.006792668,0.00620801,172.17.160.76,0.0.0.0,4,walking,0,2014-11-13 21:45:13.387,683,2014-11-13 21:44:53.658,0
2014-11-13 21:45:13.920,16822,560.7333,40.10425,-88.22172,231,-1,-1,10,165,1415935777,0.8564148,-0.516983,-0.0276947,38.21859,-6.380753,3.564911,308.699,311.7822,10,-0.05433328,-0.05435725,-0.02555836,-2.9892,1.537241,0.546557,0.009071758,0.007542557,-0.01601552,-0.01254481,0.01242468,0.005224391,172.17.160.76,0.0.0.0,4,walking,0,2014-11-13 21:45:13.387,683,2014-11-13 21:44:53.658,0
2014-11-13 21:45:13.953,16823,560.7667,40.10425,-88.22172,231,-1,-1,10,165,1415935777,0.8472137,-0.5141602,-0.01771545,38.42533,-6.518547,3.497955,308.6942,311.7774,10,-0.07358713,-0.1020928,-0.0161843,-2.989507,1.537331,0.5457433,-0.01126599,-0.03801944,-0.0002593559,0.005996879,0.002741946,0.0009190378,172.17.160.76,0.0.0.0,4,walking,0,2014-11-13 21:45:13.387,683,2014-11-13 21:44:53.658,0
2014-11-13 21:45:13.986,16824,560.8,40.10425,-88.22172,231,-1,-1,10,165,1415935777,0.8611755,-0.5181427,-0.02355957,38.80437,-6.690796,3.598389,308.6867,311.7699,10,-0.04574246,-0.03535453,-0.04141269,-2.989487,1.536935,0.5455639,-0.002686062,-0.0126005,-0.01077292,-0.007131063,0.004740027,0.01122498,172.17.160.76,0.0.0.0,4,walking,0,2014-11-13 21:45:13.387,683,2014-11-13 21:44:53.658,0
2014-11-13 21:45:14.020,16825,560.8334,40.10425,-88.22172,231,-1,-1,10,165,1415935777,0.8673401,-0.5225677,-0.02333069,38.80437,-6.828583,3.598389,308.6581,311.7413,10,-0.05001789,-0.08855437,-0.05123017,-2.990231,1.538278,0.5447536,0.01768329,0.01812107,-0.02463603,0.006372692,6.466683e-05,0.004247273,172.17.160.76,0.0.0.0,4,walking,0,2014-11-13 21:45:13.387,683,2014-11-13 21:44:53.658,0
2014-11-13 21:45:14.053,16826,560.8667,40.10425,-88.22172,231,-1,-1,10,165,1415935777,0.8261719,-0.5130615,-0.01016235,38.73546,-7.173065,3.397491,308.6492,311.7324,10,-0.06495477,-0.1130027,-0.05342594,-2.991088,1.53699,0.5429243,-0.001548972,-0.07863621,-0.03462816,-0.009566657,0.003626283,0.01352812,172.17.160.76,0.0.0.0,4,walking,0,2014-11-13 21:45:13.387,683,2014-11-13 21:44:53.658,0
2014-11-13 21:45:14.087,16827,560.9,40.10425,-88.22172,231,-1,-1,10,165,1415935777,0.8588715,-0.5120697,-0.0206604,38.39088,-7.310867,3.129578,308.6511,311.7343,10,-0.04463005,-0.03760011,-0.05735091,-2.991841,1.537427,0.5422373,0.01453789,0.01693711,-0.04161329,-0.02658113,0.008866746,0.01461573,172.17.160.76,0.0.0.0,4,stationary,1,2014-11-13 21:45:14.006,683,2014-11-13 21:44:53.658,0
2014-11-13 21:45:14.120,16828,560.9333,40.10425,-88.22172,231,-1,-1,10,165,1415935777,0.8708496,-0.515625,-0.0006408691,38.35642,-6.863037,3.296997,308.6586,311.7418,10,-0.001156345,-0.1839493,-0.01688657,-2.99326,1.538476,0.5406588,0.02721822,-0.0530473,-0.0218625,0.01504148,0.007330955,0.009303113,172.17.160.76,0.0.0.0,4,stationary,1,2014-11-13 21:45:14.006,683,2014-11-13 21:44:53.658,0
2014-11-13 21:45:14.153,16829,560.9667,40.10425,-88.22172,231,-1,-1,10,165,1415935777,0.9474487,-0.5311584,0.1142731,38.49426,-6.656349,3.029083,308.6877,311.7709,10,0.2643589,-0.2417341,-0.05427549,-2.99641,1.538112,0.5400442,0.1156469,-0.1454168,-0.009005294,0.0271563,-0.004716459,0.0545326,172.17.160.76,0.0.0.0,4,stationary,1,2014-11-13 21:45:14.006,683,2014-11-13 21:44:53.658,0
2014-11-13 21:45:14.187,16830,561,40.10425,-88.22172,231,-1,-1,10,165,1415935777,1.21106,-0.8444519,0.2862854,38.35642,-6.105171,2.694244,310.6852,313.7683,10,0.5148764,-0.2775078,-0.4152443,-3.006952,1.538262,0.5390052,0.4420545,-0.2131313,-0.09125685,0.1537854,-0.08521297,0.1852651,172.17.160.76,0.0.0.0,4,stationary,1,2014-11-13 21:45:14.006,683,2014-11-13 21:44:53.658,0
2014-11-13 21:45:14.220,16831,561.0334,40.10425,-88.22172,231,-1,-1,10,165,1415935777,1.161545,-0.8776093,0.6072235,38.66655,-5.450653,2.660767,312.9521,316.0353,10,0.796005,-0.4120784,-1.053895,-3.019604,1.540525,0.5340687,0.5783766,-0.2123363,-0.4006544,0.3209409,-0.2852719,0.2826745,172.17.160.76,0.0.0.0,4,stationary,1,2014-11-13 21:45:14.006,683,2014-11-13 21:44:53.658,0
2014-11-13 21:45:14.253,16832,561.0667,40.10425,-88.22172,231,-1,-1,10,165,1415935777,1.298843,-0.9686737,0.8279877,38.83884,-4.796127,2.828186,313.4359,316.5191,10,2.117688,0.6407246,-2.126458,-3.064804,1.552909,0.4918813,1.40075,-0.01211399,-1.558633,0.2802399,-0.4053243,0.6229894,172.17.160.76,0.0.0.0,4,stationary,1,2014-11-13 21:45:14.006,683,2014-11-13 21:44:53.658,0
2014-11-13 21:45:14.287,16833,561.1,40.10425,-88.22172,231,-1,-1,10,165,1415935777,1.086746,-1.193787,0.8200989,39.04559,-3.142609,3.698822,315.5104,318.5936,10,2.881781,1.380921,-2.556383,3.121091,1.625056,0.4056321,2.754996,1.238835,-2.420102,0.277247,-0.7383807,0.7920107,172.17.160.76,0.0.0.0,4,stationary,1,2014-11-13 21:45:14.006,683,2014-11-13 21:44:53.658,0
2014-11-13 21:45:14.320,16834,561.1334,40.10425,-88.22172,231,-1,-1,10,165,1415935777,1.319366,-1.055481,0.7357941,39.18342,-0.1800385,5.239258,324.4414,327.5246,10,4.287134,2.895497,-2.97614,3.027939,1.708955,0.3175098,3.565948,2.150526,-2.790918,0.1631016,-0.819329,0.7237482,172.17.160.76,0.0.0.0,4,stationary,1,2014-11-13 21:45:14.006,683,2014-11-13 21:44:53.658,0
2014-11-13 21:45:14.353,16835,561.1667,40.10425,-88.22172,231,-1,-1,10,165,1415935777,1.390579,-1.175903,0.3798065,38.56317,3.678185,8.387054,337.5158,340.599,10,4.868432,3.19256,-3.000105,2.877507,1.863297,0.1636374,4.866143,3.318738,-3.071989,0.4632093,-0.9434304,0.3567855,172.17.160.76,0.0.0.0,4,stationary,1,2014-11-13 21:45:14.006,683,2014-11-13 21:44:53.658,0
2014-11-13 21:45:14.387,16836,561.2,40.10425,-88.22172,231,-1,-1,10,165,1415935777,1.173141,-1.133118,0.1504669,38.11521,5.91732,9.826996,348.5549,351.6381,10,4.926611,2.848207,-2.583912,2.802662,1.936485,0.07571407,4.962367,3.092834,-2.868673,0.4593768,-1.100262,0.02323892,172.17.160.76,0.0.0.0,4,unknown,1,2014-11-13 21:45:14.315,683,2014-11-13 21:44:53.658,0
2014-11-13 21:45:14.421,16837,561.2333,40.10425,-88.22172,231,-1,-1,10,165,1415935777,1.172714,-0.952301,0.06433105,37.39159,8.363152,11.19998,0.9742739,4.057465,10,5.270734,3.327644,-2.391609,2.661916,2.054316,-0.1014006,5.165795,3.152293,-2.43816,0.2765172,-1.153931,-0.3343519,172.17.160.76,0.0.0.0,4,unknown,1,2014-11-13 21:45:14.315,683,2014-11-13 21:44:53.658,0
2014-11-13 21:45:14.453,16838,561.2667,40.10425,-88.22172,231,-1,-1,10,165,1415935777,0.9864044,-0.8135681,-0.06150818,34.56601,15.87289,13.81192,43.3036,46.3868,10,5.717108,3.192988,-1.619108,2.552877,2.139132,-0.2425413,5.641474,3.502306,-2.068702,0.3591925,-1.179059,-0.4785922,172.17.160.76,0.0.0.0,4,unknown,1,2014-11-13 21:45:14.315,683,2014-11-13 21:44:53.658,0
2014-11-13 21:45:14.487,16839,561.3,40.10425,-88.22172,231,-1,-1,10,165,1415935777,0.841568,-0.7091675,-0.1230469,33.35997,18.38763,13.91238,60.70231,63.7855,10,5.781708,2.999753,-0.465475,2.389223,2.21483,-0.4248415,5.795836,3.071278,-1.021877,0.2578124,-1.225744,-0.6085587,172.17.160.76,0.0.0.0,4,unknown,1,2014-11-13 21:45:14.315,683,2014-11-13 21:44:53.658,0
2014-11-13 21:45:14.520,16840,561.3334,40.10425,-88.22172,231,-1,-1,10,165,1415935777,0.8127136,-0.6212921,-0.197998,31.56814,22.38364,13.1087,94.71982,97.80301,10,5.803021,3.002426,-0.1088828,2.294482,2.233467,-0.5060973,5.84528,3.064924,-0.4510188,0.1696957,-1.232479,-0.6382604,172.17.160.76,0.0.0.0,4,unknown,1,2014-11-13 21:45:14.315,683,2014-11-13 21:44:53.658,0
2014-11-13 21:45:14.553,16841,561.3667,40.10425,-88.22172,231,-1,-1,10,165,1415935777,0.6435547,-0.5060577,-0.3554077,30.05198,24.79503,10.49664,123.3638,126.4469,10,5.33442,2.325485,0.9794492,2.01329,2.221369,-0.6804236,5.585625,2.615707,0.6950498,0.1305529,-1.209597,-0.744039,172.17.160.76,0.0.0.0,4,unknown,1,2014-11-13 21:45:14.315,683,2014-11-13 21:44:53.658,0
2014-11-13 21:45:14.587,16842,561.4,40.10425,-88.22172,231,-1,-1,10,165,1415935777,0.5659637,-0.2652588,-0.4679871,30.15535,25.10506,9.056702,135.9545,139.0377,10,4.659117,1.898544,2.094286,1.746949,2.13354,-0.7547175,4.848245,2.003104,1.84417,-0.04523953,-1.033258,-0.8255473,172.17.160.76,0.0.0.0,4,unknown,1,2014-11-13 21:45:14.315,683,2014-11-13 21:44:53.658,0
2014-11-13 21:45:14.620,16843,561.4333,40.10425,-88.22172,231,-1,-1,10,165,1415935777,0.6172333,-0.09487915,-0.6242371,31.08572,24.86393,5.406586,150.9808,154.064,10,4.416819,1.783383,2.872653,1.531817,2.043642,-0.7640805,4.568675,1.937896,2.621878,-0.05823188,-0.847391,-0.8621937,172.17.160.76,0.0.0.0,4,unknown,1,2014-11-13 21:45:14.315,683,2014-11-13 21:44:53.658,0
2014-11-13 21:45:14.653,16844,561.4667,40.10425,-88.22172,231,-1,-1,10,165,1415935777,0.6244965,0.02670288,-0.786026,32.32622,23.83047,4.134064,156.2914,159.3746,10,3.87511,1.049459,3.444017,1.317186,1.948268,-0.7346731,4.145172,1.457602,3.299222,-0.04085286,-0.7006943,-0.9760436,172.17.160.76,0.0.0.0,4,unknown,1,2014-11-13 21:45:14.315,683,2014-11-13 21:44:53.658,0
2014-11-13 21:45:14.687,16845,561.5,40.10425,-88.22172,231,-1,-1,10,165,1415935777,0.789444,0.2089844,-0.9195557,35.18626,20.90237,1.354584,162.1202,165.2034,10,3.212081,0.2437384,3.927354,1.130545,1.853798,-0.6693206,3.526742,0.5543553,3.815845,-0.09496643,-0.5792393,-1.012815,172.17.160.76,0.0.0.0,4,unknown,1,2014-11-13 21:45:14.315,683,2014-11-13 21:44:53.658,0
2014-11-13 21:45:14.720,16846,561.5334,40.10425,-88.22172,231,-1,-1,10,165,1415935777,0.717926,0.3957367,-0.9989166,37.66726,16.07959,-0.7885742,162.8387,165.9219,10,3.138295,-1.098642,4.015033,0.9299861,1.746562,-0.5449647,3.224727,-0.2692266,4.066334,-0.09041394,-0.2209026,-1.11256,172.17.160.76,0.0.0.0,4,unknown,1,2014-11-13 21:45:14.315,683,2014-11-13 21:44:53.658,0
2014-11-13 21:45:14.754,16847,561.5667,40.10425,-88.22172,231,-1,-1,10,165,1415935777,0.8020172,0.4236603,-1.132706,38.52871,13.42706,-1.893707,161.4788,164.562,10,3.180267,-1.377512,3.812787,0.8434429,1.688747,-0.4738876,3.201864,-1.033474,4.029489,-0.1656925,-0.06061218,-1.103626,172.17.160.76,0.0.0.0,4,unknown,1,2014-11-13 21:45:14.315,683,2014-11-13 21:44:53.658,0
2014-11-13 21:45:14.787,16848,561.6,40.10425,-88.22172,231,-1,-1,10,165,1415935777,0.765564,0.5284271,-1.152618,39.56246,7.915314,-4.036865,157.7463,160.8295,10,3.076448,-2.639048,3.628204,0.6922533,1.570704,-0.3293395,3.261939,-1.993648,3.660119,-0.1442389,0.1002422,-1.132618,172.17.160.76,0.0.0.0,4,unknown,1,2014-11-13 21:45:14.315,683,2014-11-13 21:44:53.658,0
2014-11-13 21:45:14.820,16849,561.6334,40.10425,-88.22172,231,-1,-1,10,165,1415935777,0.6607971,0.3324585,-1.260559,39.01113,1.645691,-6.514923,155.3543,158.4375,10,3.156778,-2.676751,3.847431,0.6284886,1.504531,-0.2549811,3.140016,-2.57388,3.642659,-0.2105394,0.2507484,-1.093089,172.17.160.76,0.0.0.0,4,unknown,1,2014-11-13 21:45:14.315,683,2014-11-13 21:44:53.658,0
2014-11-13 21:45:14.853,16850,561.6667,40.10425,-88.22172,231,-1,-1,10,165,1415935777,0.5571136,-0.5753632,-1.231216,37.11592,-5.14064,-9.629303,152.9235,156.0067,10,3.165932,-2.793291,4.31702,0.4949979,1.347022,-0.03874866,3.321776,-2.925541,4.083826,-0.3440402,-0.1227539,-1.050594,172.17.160.76,0.0.0.0,4,unknown,1,2014-11-13 21:45:14.315,683,2014-11-13 21:44:53.658,0
2014-11-13 21:45:14.887,16851,561.7,40.10425,-88.22172,231,-1,-1,10,165,1415935777,0.5841064,-1.033798,-1.180603,35.42747,-9.102211,-11.27017,151.235,154.3182,10,2.812389,-2.376766,4.295062,0.4350497,1.266948,0.1104369,3.113522,-2.464605,4.324805,-0.3972625,-0.6658648,-0.8924633,172.17.160.76,0.0.0.0,4,unknown,1,2014-11-13 21:45:14.315,683,2014-11-13 21:44:53.658,0
2014-11-13 21:45:14.920,16852,561.7333,40.10425,-88.22172,231,-1,-1,10,165,1415935777,0.3581085,-1.342468,-1.164307,30.98235,-15.81963,-13.31296,146.5634,149.6466,10,1.294464,-2.429067,5.298263,0.4049556,1.178646,0.3124951,1.755691,-2.368941,4.950298,-0.3351916,-0.8369449,-0.8265792,172.17.160.76,0.0.0.0,4,unknown,1,2014-11-13 21:45:14.315,683,2014-11-13 21:44:53.658,0
2014-11-13 21:45:14.953,16853,561.7667,40.10425,-88.22172,231,-1,-1,10,165,1415935777,-0.08140564,-1.801422,-1.109863,24.3319,-21.64142,-14.35104,139.1152,142.1984,10,0.2131264,-1.333777,6.050056,0.4484829,1.096027,0.4760783,0.6319298,-1.825104,5.842647,-0.5945124,-1.013215,-0.720333,172.17.160.76,0.0.0.0,4,unknown,1,2014-11-13 21:45:14.315,683,2014-11-13 21:44:53.658,0
2014-11-13 21:45:14.987,16854,561.8,40.10425,-88.22172,231,-1,-1,10,165,1415935777,-0.1757812,-2.543579,-1.155426,21.1962,-23.94947,-14.38455,134.744,137.8272,10,-0.8902828,0.9855544,6.655524,0.5573186,1.017141,0.6388534,-0.4228491,0.2791094,6.528533,-0.8731282,-1.469719,-0.7033711,172.17.160.76,0.0.0.0,4,unknown,1,2014-11-13 21:45:14.315,683,2014-11-13 21:44:53.658,0
2014-11-13 21:45:15.020,16855,561.8334,40.10425,-88.22172,231,-1,-1,10,165,1415935777,-0.4009247,-2.892136,-1.093384,14.06333,-26.46421,-13.88217,121.5536,124.6367,10,-3.254781,3.731723,6.999406,0.8281665,0.9033119,0.8276774,-2.16499,2.659304,6.851175,-0.7279737,-1.995526,-0.7444376,172.17.160.76,0.0.0.0,4,unknown,1,2014-11-13 21:45:14.315,683,2014-11-13 21:44:53.658,0
2014-11-13 21:45:15.054,16856,561.8667,40.10425,-88.22172,231,-1,-1,10,165,1415935777,-0.5698395,-3.432297,-0.8183594,10.6175,-26.87759,-14.01614,112.0547,115.1379,10,-5.124905,6.769509,7.155091,1.15615,0.7609422,0.9215048,-3.732483,4.654494,7.137167,-0.9932745,-2.20866,-0.5425789,172.17.160.76,0.0.0.0,4,unknown,1,2014-11-13 21:45:14.315,683,2014-11-13 21:44:53.658,0
2014-11-13 21:45:15.087,16857,561.9,40.10425,-88.22172,231,-1,-1,10,165,1415935777,-0.3433075,-4.365982,-0.04483032,6.241302,-24.63844,-15.38913,87.72208,90.80527,10,-7.599833,10.18532,6.817197,1.594991,0.6028805,0.9419476,-5.822668,7.901642,7.142987,-0.7860271,-2.777217,-0.2440156,172.17.160.76,0.0.0.0,4,unknown,1,2014-11-13 21:45:14.315,683,2014-11-13 21:44:53.658,0
2014-11-13 21:45:15.120,16858,561.9333,40.10425,-88.22172,231,-1,-1,10,165,1415935777,-0.2388916,-4.859268,0.6953888,7.550716,-19.88456,-18.5369,47.67147,50.75466,10,-10.78422,14.33843,3.310949,2.066547,0.5307695,0.8621064,-8.50671,11.82578,6.283118,-0.6727607,-3.606767,0.5164654,172.17.160.76,0.0.0.0,4,unknown,1,2014-11-13 21:45:14.315,683,2014-11-13 21:44:53.658,0
2014-11-13 21:45:15.154,16859,561.9667,40.10425,-88.22172,231,-1,-1,10,165,1415935777,1.797379,-3.533203,0.319931,16.54433,-11.10021,-18.77133,6.201427,9.284617,10,-12.2942,12.49633,-1.251101,2.546387,0.7674872,0.5811428,-11.92159,13.88013,0.1947101,0.2072373,-3.520402,1.115584,172.17.160.76,0.0.0.0,4,unknown,1,2014-11-13 21:45:14.315,683,2014-11-13 21:44:53.658,0
2014-11-13 21:45:15.187,16860,562,40.10425,-88.22172,231,-1,-1,10,165,1415935777,1.957703,-2.345963,0.4468994,22.2644,-5.864052,-16.82907,355.5881,358.6713,10,-12.6917,6.542923,-4.932461,2.913555,1.03307,0.2023145,-12.62569,7.248735,-3.797963,0.8735164,-2.677374,0.9255359,172.17.160.76,0.0.0.0,4,unknown,1,2014-11-13 21:45:14.315,683,2014-11-13 21:44:53.658,0
2014-11-13 21:45:15.220,16861,562.0334,40.10425,-88.22172,231,-1,-1,10,165,1415935777,2.49353,-1.116791,-0.646637,27.36423,0.1988602,-13.81516,349.6086,352.6918,10,-12.94969,6.047995,-7.178074,3.002145,1.087099,0.1001825,-12.62814,6.608086,-4.918006,1.07686,-2.245948,0.909623,172.17.160.76,0.0.0.0,4,unknown,1,2014-11-13 21:45:14.315,683,2014-11-13 21:44:53.658,0
2014-11-13 21:45:15.253,16862,562.0667,40.10425,-88.22172,231,-1,-1,10,165,1415935777,0.5154877,-0.6941376,-1.651184,30.98235,16.83744,3.430817,340.9586,344.0417,10,-14.69656,4.137959,-7.793005,-2.736346,1.47677,-0.4478233,-14.42185,4.415232,-8.100915,0.6684926,-1.304342,-1.189632,172.17.160.76,0.0.0.0,4,unknown,1,2014-11-13 21:45:14.315,683,2014-11-13 21:44:53.658,0
2014-11-13 21:45:15.287,16863,562.1,40.10425,-88.22172,231,-1,-1,10,165,1415935777,0.5414276,-0.1876221,-1.665176,28.15677,19.93781,10.12833,340.0959,343.1791,10,-12.39213,6.151507,-6.801729,-2.207974,1.890536,-0.6260201,-13.90616,5.004956,-6.797302,-0.496101,-1.22246,-2.217299,172.17.160.76,0.0.0.0,4,unknown,1,2014-11-13 21:45:14.315,683,2014-11-13 21:44:53.658,0
2014-11-13 21:45:15.320,16864,562.1334,40.10425,-88.22172,231,-1,-1,10,165,1415935777,1.43924,0.1984558,-0.7371826,19.43882,19.83446,23.69073,336.7524,339.8356,10,-9.160933,6.675869,-10.20144,-1.521429,2.534479,-0.5702298,-10.64669,6.67664,-8.67422,0.2541116,-0.4819031,-2.020894,172.17.160.76,0.0.0.0,4,unknown,1,2014-11-13 21:45:14.315,683,2014-11-13 21:44:53.658,0
2014-11-13 21:45:15.353,16865,562.1667,40.10425,-88.22172,231,-1,-1,10,165,1415935777,1.980667,-0.3945923,-1.056595,13.64984,16.73409,29.24966,336.6743,339.7575,10,-7.895001,5.297962,-10.37372,-1.220396,2.822423,-0.4826625,-9.097371,6.74103,-10.18699,1.161307,-0.2656833,-1.578211,172.17.160.76,0.0.0.0,4,unknown,1,2014-11-13 21:45:14.315,683,2014-11-13 21:44:53.658,0
2014-11-13 21:45:15.386,16866,562.2,40.10425,-88.22172,231,-1,-1,10,165,1415935777,1.539719,-0.5587158,-0.664978,3.208977,7.467491,35.31085,229.384,232.4672,10,-5.325681,0.9395616,-9.053966,-0.7465304,-3.089714,-0.2242712,-6.496421,3.181932,-9.960713,2.031224,-0.6169882,-2.03024,172.17.160.76,0.0.0.0,4,unknown,1,2014-11-13 21:45:14.315,683,2014-11-13 21:44:53.658,0
2014-11-13 21:45:15.420,16867,562.2333,40.10425,-88.22172,231,-1,-1,10,165,1415935777,1.197906,-0.7761383,-0.4137421,-2.993515,-2.315865,36.31555,199.9166,202.9998,10,-4.163959,-0.025879,-7.794929,-0.5659316,-3.026222,-0.0934542,-5.26212,1.004722,-9.039512,1.871418,-0.5325425,-1.82761,172.17.160.76,0.0.0.0,4,unknown,1,2014-11-13 21:45:14.315,683,2014-11-13 21:44:53.658,0
2014-11-13 21:45:15.453,16868,562.2667,40.10425,-88.22172,231,-1,-1,10,165,1415935777,0.8985901,-1.042236,0.1820068,-3.16581,-6.553009,35.54532,190.4199,193.5031,10,-1.773556,0.2224032,-5.715699,-0.2822517,-3.022225,0.09961635,-2.790778,0.02036828,-6.54036,1.183405,-0.7598776,-1.307786,172.17.160.76,0.0.0.0,4,unknown,1,2014-11-13 21:45:14.315,683,2014-11-13 21:44:53.658,0
2014-11-13 21:45:15.487,16869,562.3,40.10425,-88.22172,231,-1,-1,10,165,1415935777,0.8297424,-1.062271,0.4241638,-1.30505,-12.06476,34.4068,176.4587,179.5419,10,-0.6974971,0.2911336,-5.12812,-0.1131179,-3.038485,0.1738915,-1.241423,0.4557063,-5.496187,0.999963,-0.8692199,-0.7976813,172.17.160.76,0.0.0.0,4,unknown,1,2014-11-13 21:45:14.315,683,2014-11-13 21:44:53.658,0
2014-11-13 21:45:15.520,16870,562.3334,40.10425,-88.22172,231,-1,-1,10,165,1415935777,0.7704773,-1.040192,0.6722565,2.002941,-14.75173,33.26825,163.6254,166.7086,10,-0.08032387,-0.7741026,-4.315516,0.1359329,-3.082101,0.2226093,-0.1769597,-0.4380932,-4.466863,0.9008086,-0.7451518,-0.4402435,172.17.160.76,0.0.0.0,4,unknown,1,2014-11-13 21:45:14.315,683,2014-11-13 21:44:53.658,0
2014-11-13 21:45:15.553,16871,562.3667,40.10425,-88.22172,231,-1,-1,10,165,1415935777,0.3258209,-1.182938,0.7146606,-0.2344666,-16.33858,29.92261,163.9321,167.0153,10,-0.393212,-1.514637,-3.619788,0.2636991,-3.137978,0.2283133,-0.1398622,-1.238148,-3.892708,0.6679496,-0.918822,-0.2940353,172.17.160.76,0.0.0.0,4,unknown,1,2014-11-13 21:45:14.315,683,2014-11-13 21:44:53.658,0
2014-11-13 21:45:15.587,16872,562.4,40.10425,-88.22172,231,-1,-1,10,165,1415935777,0.07577515,-0.7812805,1.050385,2.108593,-16.54527,29.72159,158.5503,161.6335,10,-0.653891,-1.51736,-2.727182,0.3360315,3.098962,0.2343988,-0.4959998,-1.601877,-3.253216,0.2843682,-0.9506794,-0.2571098,172.17.160.76,0.0.0.0,4,unknown,1,2014-11-13 21:45:14.315,683,2014-11-13 21:44:53.658,0
2014-11-13 21:45:15.620,16873,562.4333,40.10425,-88.22172,231,-1,-1,10,165,1415935777,0.1338501,-0.6301422,1.088638,4.175995,-16.47637,29.45358,154.0914,157.1746,10,-0.234486,-0.2736233,-2.205261,0.4484788,3.021292,0.2461349,-0.3496774,-0.6306457,-2.38991,-0.04061833,-0.5376233,0.08753264,172.17.160.76,0.0.0.0,4,unknown,1,2014-11-13 21:45:14.315,683,2014-11-13 21:44:53.658,0
2014-11-13 21:45:15.653,16874,562.4667,40.10425,-88.22172,231,-1,-1,10,165,1415935777,0.3925934,-0.574173,0.9631805,6.966995,-16.57973,29.15207,148.6209,151.7041,10,0.2707673,-0.009161807,-1.05936,0.5094898,3.005218,0.2397822,0.1550541,0.1876394,-1.637024,0.0455957,-0.3618894,0.08877669,172.17.160.76,0.0.0.0,4,unknown,1,2014-11-13 21:45:14.315,683,2014-11-13 21:44:53.658,0
2014-11-13 21:45:15.687,16875,562.5,40.10425,-88.22172,231,-1,-1,10,165,1415935777,0.6135406,-0.6643066,0.8779907,8.862114,-16.1319,28.71655,142.9007,145.9839,10,0.5684856,-0.8074049,-0.6517615,0.5475931,2.993696,0.2210279,0.4635504,-0.5257303,-0.5401172,0.2488204,-0.3549404,-0.001840901,172.17.160.76,0.0.0.0,4,unknown,1,2014-11-13 21:45:14.315,683,2014-11-13 21:44:53.658,0
2014-11-13 21:45:15.720,16876,562.5334,40.10425,-88.22172,231,-1,-1,10,165,1415935777,0.259552,-0.6249847,0.7501678,10.7917,-15.51182,28.78351,139.3073,142.3905,10,-0.2061534,-1.430239,0.1238026,0.5614045,2.967589,0.2020515,0.2844349,-0.9179014,-0.2803872,0.4439361,-0.4636271,-0.08687302,172.17.160.76,0.0.0.0,4,unknown,1,2014-11-13 21:45:14.315,683,2014-11-13 21:44:53.658,0
2014-11-13 21:45:15.753,16877,562.5667,40.10425,-88.22172,231,-1,-1,10,165,1415935777,0.2761841,-0.5099182,0.9779358,10.99844,-15.02955,28.58252,139.1402,142.2234,10,0.1761236,-0.2609371,0.2123858,0.5545982,2.920636,0.2098699,0.01867399,-0.6833105,0.236662,0.01233069,-0.2753404,-0.07407654,172.17.160.76,0.0.0.0,4,unknown,1,2014-11-13 21:45:14.315,683,2014-11-13 21:44:53.658,0
2014-11-13 21:45:15.787,16878,562.6,40.10425,-88.22172,231,-1,-1,10,165,1415935777,0.396347,-0.5988617,1.067474,11.75648,-14.82287,28.11349,139.8308,142.914,10,0.629429,0.2939858,0.276238,0.548914,2.919482,0.2051457,0.4479782,0.1567051,0.2012645,0.06051448,-0.3062084,0.02295468,172.17.160.76,0.0.0.0,4,unknown,1,2014-11-13 21:45:14.315,683,2014-11-13 21:44:53.658,0
2014-11-13 21:45:15.819,16879,562.6334,40.10425,-88.22172,231,-1,-1,10,165,1415935777,0.4915619,-0.5667572,0.94841,11.41191,-14.40948,28.24753,140.7173,143.8005,10,0.7452974,-0.5952389,0.8666129,0.5223101,2.934169,0.1748287,0.7885174,-0.194876,0.6630669,0.2701766,-0.4183152,0.03146934,172.17.160.76,0.0.0.0,4,unknown,1,2014-11-13 21:45:14.315,683,2014-11-13 21:44:53.658,0
2014-11-13 21:45:15.853,16880,562.6667,40.10425,-88.22172,231,-1,-1,10,165,1415935777,0.2833557,-0.5753174,1.028015,11.5842,-14.30614,28.48203,140.8643,143.9475,10,0.7163048,-1.298396,1.463817,0.4860437,2.917536,0.1577986,0.8061429,-1.098545,1.304685,0.2286942,-0.4007016,0.02209498,172.17.160.76,0.0.0.0,4,unknown,1,2014-11-13 21:45:14.315,683,2014-11-13 21:44:53.658,0
2014-11-13 21:45:15.887,16881,562.7,40.10425,-88.22172,231,-1,-1,10,165,1415935777,0.2924194,-0.4480133,0.9033508,11.51529,-13.75497,28.68304,143.3633,146.4465,10,1.104303,-0.5069364,2.033364,0.4145582,2.883461,0.1417066,0.9360202,-0.8293414,1.786467,-0.02020293,-0.3517939,0.05322953,172.17.160.76,0.0.0.0,4,unknown,1,2014-11-13 21:45:14.315,683,2014-11-13 21:44:53.658,0
2014-11-13 21:45:15.919,16882,562.7333,40.10425,-88.22172,231,-1,-1,10,165,1415935777,0.4285889,-0.4572601,0.8016663,11.89431,-13.37603,28.51556,147.1983,150.2815,10,1.134688,-0.685006,2.51741,0.3467794,2.877108,0.1245932,1.230383,-0.4226009,2.199362,0.08117563,-0.3260463,-0.1179778,172.17.160.76,0.0.0.0,4,unknown,1,2014-11-13 21:45:14.315,683,2014-11-13 21:44:53.658,0
2014-11-13 21:45:15.953,16883,562.7667,40.10425,-88.22172,231,-1,-1,10,165,1415935777,0.4534912,-0.3787689,0.8338013,11.61865,-13.03155,28.64954,152.1406,155.2238,10,1.114048,-0.9326145,2.935468,0.2646695,2.868904,0.1095107,1.16468,-0.7461194,2.693616,0.1719127,-0.3508216,-0.1274626,172.17.160.76,0.0.0.0,4,unknown,1,2014-11-13 21:45:14.315,683,2014-11-13 21:44:53.658,0
2014-11-13 21:45:15.986,16884,562.8,40.10425,-88.22172,231,-1,-1,10,165,1415935777,0.5059357,-0.2887115,0.8379669,11.17072,-12.9282,28.48203,155.1148,158.198,10,1.270843,-0.783322,3.298694,0.1701516,2.853346,0.09972586,1.241274,-0.8474174,3.074929,0.170632,-0.2792083,-0.120179,172.17.160.76,0.0.0.0,4,walking,0,2014-11-13 21:45:15.862,683,2014-11-13 21:44:53.658,0
